lam(nm) Flux (10^-20 J/s/m2/um)
324.735 1.66978e+06
324.81 1.66978e+06
324.885 1.65721e+06
324.96 1.64463e+06
325.035 1.64463e+06
325.11 1.64463e+06
325.185 1.63209e+06
325.26 1.61954e+06
325.335 1.61954e+06
325.41 1.61954e+06
325.485 1.63477e+06
325.56 1.65001e+06
325.635 1.65001e+06
325.71 1.65001e+06
325.785 1.66521e+06
325.86 1.68042e+06
325.935 1.68042e+06
326.01 1.68042e+06
326.085 1.6956e+06
326.16 1.71078e+06
326.235 1.71078e+06
326.31 1.71078e+06
326.385 1.72593e+06
326.46 1.74109e+06
326.535 1.74109e+06
326.61 1.74109e+06
326.685 1.75621e+06
326.76 1.77133e+06
326.835 1.77133e+06
326.91 1.77133e+06
326.985 1.78643e+06
327.06 1.80152e+06
327.135 1.80152e+06
327.21 1.80152e+06
327.285 1.81659e+06
327.36 1.83167e+06
327.435 1.83167e+06
327.51 1.83167e+06
327.585 1.84671e+06
327.66 1.86175e+06
327.735 1.86175e+06
327.81 1.86175e+06
327.885 1.87676e+06
327.96 1.89177e+06
328.035 1.89177e+06
328.11 1.89177e+06
328.185 1.90676e+06
328.26 1.92175e+06
328.335 1.92175e+06
328.41 1.92175e+06
328.485 1.91396e+06
328.56 1.90617e+06
328.635 1.90617e+06
328.71 1.90617e+06
328.785 1.8984e+06
328.86 1.89064e+06
328.935 1.89064e+06
329.01 1.89064e+06
329.085 1.88288e+06
329.16 1.87513e+06
329.235 1.87513e+06
329.31 1.87513e+06
329.385 1.86738e+06
329.46 1.85964e+06
329.535 1.85964e+06
329.61 1.85964e+06
329.685 1.85191e+06
329.76 1.84418e+06
329.835 1.84418e+06
329.91 1.84418e+06
329.985 1.83647e+06
330.06 1.82876e+06
330.135 1.82876e+06
330.21 1.82876e+06
330.285 1.82106e+06
330.36 1.81336e+06
330.435 1.81336e+06
330.51 1.81336e+06
330.585 1.80567e+06
330.66 1.79798e+06
330.735 1.79798e+06
330.81 1.79798e+06
330.885 1.79031e+06
330.96 1.78264e+06
331.035 1.78264e+06
331.11 1.78264e+06
331.185 1.77498e+06
331.26 1.76732e+06
331.335 1.76732e+06
331.41 1.76732e+06
331.485 1.76521e+06
331.56 1.7631e+06
331.635 1.7631e+06
331.71 1.7631e+06
331.785 1.76098e+06
331.86 1.75887e+06
331.935 1.75887e+06
332.01 1.75887e+06
332.085 1.75676e+06
332.16 1.75465e+06
332.235 1.75465e+06
332.31 1.75465e+06
332.385 1.75255e+06
332.46 1.75045e+06
332.535 1.75045e+06
332.61 1.75045e+06
332.685 1.74834e+06
332.76 1.74624e+06
332.835 1.74624e+06
332.91 1.74624e+06
332.985 1.74414e+06
333.06 1.74205e+06
333.135 1.74205e+06
333.21 1.74205e+06
333.285 1.73995e+06
333.36 1.73786e+06
333.435 1.73786e+06
333.51 1.73786e+06
333.585 1.73578e+06
333.66 1.73369e+06
333.735 1.73369e+06
333.81 1.73369e+06
333.885 1.7316e+06
333.96 1.72952e+06
334.035 1.72952e+06
334.11 1.72952e+06
334.185 1.72744e+06
334.26 1.72536e+06
334.335 1.72536e+06
334.41 1.72536e+06
334.485 1.70872e+06
334.56 1.69207e+06
334.635 1.69207e+06
334.71 1.69207e+06
334.785 1.67546e+06
334.86 1.65885e+06
334.935 1.65885e+06
335.01 1.65885e+06
335.085 1.64227e+06
335.16 1.62569e+06
335.235 1.62569e+06
335.31 1.62569e+06
335.385 1.60913e+06
335.46 1.59258e+06
335.535 1.59258e+06
335.61 1.59258e+06
335.685 1.57606e+06
335.76 1.55954e+06
335.835 1.55954e+06
335.91 1.55954e+06
335.985 1.54304e+06
336.06 1.52655e+06
336.135 1.52655e+06
336.21 1.52655e+06
336.285 1.51008e+06
336.36 1.49362e+06
336.435 1.49362e+06
336.51 1.49362e+06
336.585 1.47718e+06
336.66 1.46075e+06
336.735 1.46075e+06
336.81 1.46075e+06
336.885 1.44434e+06
336.96 1.42794e+06
337.035 1.42794e+06
337.11 1.42794e+06
337.185 1.41156e+06
337.26 1.39519e+06
337.335 1.39519e+06
337.41 1.39519e+06
337.485 1.41296e+06
337.56 1.43073e+06
337.635 1.43073e+06
337.71 1.43073e+06
337.785 1.44847e+06
337.86 1.46621e+06
337.935 1.46621e+06
338.01 1.46621e+06
338.085 1.48391e+06
338.16 1.50162e+06
338.235 1.50162e+06
338.31 1.50162e+06
338.385 1.5193e+06
338.46 1.53698e+06
338.535 1.53698e+06
338.61 1.53698e+06
338.685 1.55462e+06
338.76 1.57226e+06
338.835 1.57226e+06
338.91 1.57226e+06
338.985 1.58988e+06
339.06 1.60749e+06
339.135 1.60749e+06
339.21 1.60749e+06
339.285 1.62507e+06
339.36 1.64266e+06
339.435 1.64266e+06
339.51 1.64266e+06
339.585 1.66021e+06
339.66 1.67776e+06
339.735 1.67776e+06
339.81 1.67776e+06
339.885 1.69528e+06
339.96 1.7128e+06
340.035 1.7128e+06
340.11 1.7128e+06
340.185 1.73029e+06
340.26 1.74778e+06
340.335 1.74778e+06
340.41 1.74778e+06
340.485 1.74068e+06
340.56 1.73357e+06
340.635 1.73357e+06
340.71 1.73357e+06
340.785 1.72648e+06
340.86 1.71939e+06
340.935 1.71939e+06
341.01 1.71939e+06
341.085 1.7123e+06
341.16 1.70522e+06
341.235 1.70522e+06
341.31 1.70522e+06
341.385 1.69816e+06
341.46 1.69109e+06
341.535 1.69109e+06
341.61 1.69109e+06
341.685 1.68404e+06
341.76 1.67698e+06
341.835 1.67698e+06
341.91 1.67698e+06
341.985 1.66994e+06
342.06 1.6629e+06
342.135 1.6629e+06
342.21 1.6629e+06
342.285 1.65586e+06
342.36 1.64883e+06
342.435 1.64883e+06
342.51 1.64883e+06
342.585 1.64181e+06
342.66 1.6348e+06
342.735 1.6348e+06
342.81 1.6348e+06
342.885 1.62779e+06
342.96 1.62078e+06
343.035 1.62078e+06
343.11 1.62078e+06
343.185 1.61379e+06
343.26 1.6068e+06
343.335 1.6068e+06
343.41 1.6068e+06
343.485 1.60734e+06
343.56 1.60787e+06
343.635 1.60787e+06
343.71 1.60787e+06
343.785 1.60841e+06
343.86 1.60894e+06
343.935 1.60894e+06
344.01 1.60894e+06
344.085 1.60948e+06
344.16 1.61002e+06
344.235 1.61002e+06
344.31 1.61002e+06
344.385 1.61056e+06
344.46 1.61109e+06
344.535 1.61109e+06
344.61 1.61109e+06
344.685 1.61163e+06
344.76 1.61216e+06
344.835 1.61216e+06
344.91 1.61216e+06
344.985 1.61269e+06
345.06 1.61323e+06
345.135 1.61323e+06
345.21 1.61323e+06
345.285 1.61376e+06
345.36 1.61429e+06
345.435 1.61429e+06
345.51 1.61429e+06
345.585 1.61482e+06
345.66 1.61535e+06
345.735 1.61535e+06
345.81 1.61535e+06
345.885 1.61589e+06
345.96 1.61642e+06
346.035 1.61642e+06
346.11 1.61642e+06
346.185 1.61695e+06
346.26 1.61747e+06
346.335 1.61747e+06
346.41 1.61747e+06
346.485 1.61528e+06
346.56 1.61309e+06
346.635 1.61309e+06
346.71 1.61309e+06
346.785 1.6109e+06
346.86 1.60871e+06
346.935 1.60871e+06
347.01 1.60871e+06
347.085 1.60653e+06
347.16 1.60434e+06
347.235 1.60434e+06
347.31 1.60434e+06
347.385 1.60216e+06
347.46 1.59998e+06
347.535 1.59998e+06
347.61 1.59998e+06
347.685 1.5978e+06
347.76 1.59562e+06
347.835 1.59562e+06
347.91 1.59562e+06
347.985 1.59345e+06
348.06 1.59128e+06
348.135 1.59128e+06
348.21 1.59128e+06
348.285 1.5891e+06
348.36 1.58693e+06
348.435 1.58693e+06
348.51 1.58693e+06
348.585 1.58476e+06
348.66 1.58259e+06
348.735 1.58259e+06
348.81 1.58259e+06
348.885 1.58043e+06
348.96 1.57827e+06
349.035 1.57827e+06
349.11 1.57827e+06
349.185 1.57611e+06
349.26 1.57395e+06
349.335 1.57395e+06
349.41 1.57395e+06
349.485 1.53979e+06
349.56 1.50564e+06
349.635 1.50564e+06
349.71 1.50564e+06
349.785 1.47154e+06
349.86 1.43744e+06
349.935 1.43744e+06
350.01 1.43744e+06
350.085 1.4034e+06
350.16 1.36936e+06
350.235 1.36936e+06
350.31 1.36936e+06
350.385 1.33538e+06
350.46 1.3014e+06
350.535 1.3014e+06
350.61 1.3014e+06
350.685 1.26748e+06
350.76 1.23356e+06
350.835 1.23356e+06
350.91 1.23356e+06
350.985 1.19969e+06
351.06 1.16582e+06
351.135 1.16582e+06
351.21 1.16582e+06
351.285 1.13202e+06
351.36 1.09821e+06
351.435 1.09821e+06
351.51 1.09821e+06
351.585 1.06446e+06
351.66 1.03071e+06
351.735 1.03071e+06
351.81 1.03071e+06
351.885 997021
351.96 963328
352.035 963328
352.11 963328
352.185 929693
352.26 896059
352.335 896059
352.41 896059
352.485 925271
352.56 954483
352.635 954483
352.71 954483
352.785 983645
352.86 1.01281e+06
352.935 1.01281e+06
353.01 1.01281e+06
353.085 1.04192e+06
353.16 1.07103e+06
353.235 1.07103e+06
353.31 1.07103e+06
353.385 1.10009e+06
353.46 1.12916e+06
353.535 1.12916e+06
353.61 1.12916e+06
353.685 1.15817e+06
353.76 1.18718e+06
353.835 1.18718e+06
353.91 1.18718e+06
353.985 1.21615e+06
354.06 1.24511e+06
354.135 1.24511e+06
354.21 1.24511e+06
354.285 1.27403e+06
354.36 1.30294e+06
354.435 1.30294e+06
354.51 1.30294e+06
354.585 1.33181e+06
354.66 1.36067e+06
354.735 1.36067e+06
354.81 1.36067e+06
354.885 1.38949e+06
354.96 1.41831e+06
355.035 1.41831e+06
355.11 1.41831e+06
355.185 1.44708e+06
355.26 1.47585e+06
355.335 1.47585e+06
355.41 1.47585e+06
355.485 1.47039e+06
355.56 1.46493e+06
355.635 1.46493e+06
355.71 1.46493e+06
355.785 1.45948e+06
355.86 1.45403e+06
355.935 1.45403e+06
356.01 1.45403e+06
356.085 1.44859e+06
356.16 1.44315e+06
356.235 1.44315e+06
356.31 1.44315e+06
356.385 1.43771e+06
356.46 1.43227e+06
356.535 1.43227e+06
356.61 1.43227e+06
356.685 1.42685e+06
356.76 1.42143e+06
356.835 1.42143e+06
356.91 1.42143e+06
356.985 1.41602e+06
357.06 1.4106e+06
357.135 1.4106e+06
357.21 1.4106e+06
357.285 1.4052e+06
357.36 1.3998e+06
357.435 1.3998e+06
357.51 1.3998e+06
357.585 1.3944e+06
357.66 1.389e+06
357.735 1.389e+06
357.81 1.389e+06
357.885 1.38361e+06
357.96 1.37823e+06
358.035 1.37823e+06
358.11 1.37823e+06
358.185 1.37285e+06
358.26 1.36747e+06
358.335 1.36747e+06
358.41 1.36747e+06
358.485 1.3523e+06
358.56 1.33712e+06
358.635 1.33712e+06
358.71 1.33712e+06
358.785 1.32197e+06
358.86 1.30681e+06
358.935 1.30681e+06
359.01 1.30681e+06
359.085 1.29169e+06
359.16 1.27656e+06
359.235 1.27656e+06
359.31 1.27656e+06
359.385 1.26146e+06
359.46 1.24636e+06
359.535 1.24636e+06
359.61 1.24636e+06
359.685 1.23128e+06
359.76 1.21621e+06
359.835 1.21621e+06
359.91 1.21621e+06
359.985 1.20116e+06
360.06 1.18611e+06
360.135 1.18611e+06
360.21 1.18611e+06
360.285 1.17108e+06
360.36 1.15605e+06
360.435 1.15605e+06
360.51 1.15605e+06
360.585 1.14105e+06
360.66 1.12605e+06
360.735 1.12605e+06
360.81 1.12605e+06
360.885 1.11107e+06
360.96 1.0961e+06
361.035 1.0961e+06
361.11 1.0961e+06
361.185 1.08115e+06
361.26 1.0662e+06
361.335 1.0662e+06
361.41 1.0662e+06
361.485 1.05539e+06
361.56 1.04458e+06
361.635 1.04458e+06
361.71 1.04458e+06
361.785 1.03379e+06
361.86 1.023e+06
361.935 1.023e+06
362.01 1.023e+06
362.085 1.01222e+06
362.16 1.00145e+06
362.235 1.00145e+06
362.31 1.00145e+06
362.385 990692
362.46 979935
362.535 979935
362.61 979935
362.685 969194
362.76 958454
362.835 958454
362.91 958454
362.985 947734
363.06 937015
363.135 937015
363.21 937015
363.285 926314
363.36 915613
363.435 915613
363.51 915613
363.585 904928
363.66 894243
363.735 894243
363.81 894243
363.885 883574
363.96 872905
364.035 872905
364.11 872905
364.185 862254
364.26 851603
364.335 851603
364.41 851603
364.485 873508
364.56 895412
364.635 895412
364.71 895412
364.785 917281
364.86 939150
364.935 939150
365.01 939150
365.085 960982
365.16 982814
365.235 982814
365.31 982814
365.385 1.00461e+06
365.46 1.02641e+06
365.535 1.02641e+06
365.61 1.02641e+06
365.685 1.04817e+06
365.76 1.06993e+06
365.835 1.06993e+06
365.91 1.06993e+06
365.985 1.09166e+06
366.06 1.11338e+06
366.135 1.11338e+06
366.21 1.11338e+06
366.285 1.13507e+06
366.36 1.15676e+06
366.435 1.15676e+06
366.51 1.15676e+06
366.585 1.17842e+06
366.66 1.20007e+06
366.735 1.20007e+06
366.81 1.20007e+06
366.885 1.22169e+06
366.96 1.24331e+06
367.035 1.24331e+06
367.11 1.24331e+06
367.185 1.26489e+06
367.26 1.28647e+06
367.335 1.28647e+06
367.41 1.28647e+06
367.485 1.29437e+06
367.56 1.30226e+06
367.635 1.30226e+06
367.71 1.30226e+06
367.785 1.31015e+06
367.86 1.31803e+06
367.935 1.31803e+06
368.01 1.31803e+06
368.085 1.3259e+06
368.16 1.33377e+06
368.235 1.33377e+06
368.31 1.33377e+06
368.385 1.34163e+06
368.46 1.34949e+06
368.535 1.34949e+06
368.61 1.34949e+06
368.685 1.35734e+06
368.76 1.36518e+06
368.835 1.36518e+06
368.91 1.36518e+06
368.985 1.37301e+06
369.06 1.38084e+06
369.135 1.38084e+06
369.21 1.38084e+06
369.285 1.38866e+06
369.36 1.39648e+06
369.435 1.39648e+06
369.51 1.39648e+06
369.585 1.40429e+06
369.66 1.41209e+06
369.735 1.41209e+06
369.81 1.41209e+06
369.885 1.41989e+06
369.96 1.42768e+06
370.035 1.42768e+06
370.11 1.42768e+06
370.185 1.43547e+06
370.26 1.44325e+06
370.335 1.44325e+06
370.41 1.44325e+06
370.485 1.44275e+06
370.56 1.44226e+06
370.635 1.44226e+06
370.71 1.44226e+06
370.785 1.44176e+06
370.86 1.44126e+06
370.935 1.44126e+06
371.01 1.44126e+06
371.085 1.44077e+06
371.16 1.44028e+06
371.235 1.44028e+06
371.31 1.44028e+06
371.385 1.43978e+06
371.46 1.43929e+06
371.535 1.43929e+06
371.61 1.43929e+06
371.685 1.4388e+06
371.76 1.43831e+06
371.835 1.43831e+06
371.91 1.43831e+06
371.985 1.43781e+06
372.06 1.43732e+06
372.135 1.43732e+06
372.21 1.43732e+06
372.285 1.43683e+06
372.36 1.43634e+06
372.435 1.43634e+06
372.51 1.43634e+06
372.585 1.43585e+06
372.66 1.43535e+06
372.735 1.43535e+06
372.81 1.43535e+06
372.885 1.43486e+06
372.96 1.43437e+06
373.035 1.43437e+06
373.11 1.43437e+06
373.185 1.43389e+06
373.26 1.4334e+06
373.335 1.4334e+06
373.41 1.4334e+06
373.485 1.42991e+06
373.56 1.42641e+06
373.635 1.42641e+06
373.71 1.42641e+06
373.785 1.42293e+06
373.86 1.41944e+06
373.935 1.41944e+06
374.01 1.41944e+06
374.085 1.41596e+06
374.16 1.41247e+06
374.235 1.41247e+06
374.31 1.41247e+06
374.385 1.409e+06
374.46 1.40552e+06
374.535 1.40552e+06
374.61 1.40552e+06
374.685 1.40205e+06
374.76 1.39858e+06
374.835 1.39858e+06
374.91 1.39858e+06
374.985 1.39511e+06
375.06 1.39165e+06
375.135 1.39165e+06
375.21 1.39165e+06
375.285 1.38819e+06
375.36 1.38473e+06
375.435 1.38473e+06
375.51 1.38473e+06
375.585 1.38127e+06
375.66 1.37782e+06
375.735 1.37782e+06
375.81 1.37782e+06
375.885 1.37437e+06
375.96 1.37092e+06
376.035 1.37092e+06
376.11 1.37092e+06
376.185 1.36748e+06
376.26 1.36404e+06
376.335 1.36404e+06
376.41 1.36404e+06
376.485 1.36514e+06
376.56 1.36624e+06
376.635 1.36624e+06
376.71 1.36624e+06
376.785 1.36734e+06
376.86 1.36845e+06
376.935 1.36845e+06
377.01 1.36845e+06
377.085 1.36954e+06
377.16 1.37064e+06
377.235 1.37064e+06
377.31 1.37064e+06
377.385 1.37173e+06
377.46 1.37283e+06
377.535 1.37283e+06
377.61 1.37283e+06
377.685 1.37393e+06
377.76 1.37503e+06
377.835 1.37503e+06
377.91 1.37503e+06
377.985 1.37612e+06
378.06 1.37721e+06
378.135 1.37721e+06
378.21 1.37721e+06
378.285 1.37831e+06
378.36 1.3794e+06
378.435 1.3794e+06
378.51 1.3794e+06
378.585 1.38049e+06
378.66 1.38158e+06
378.735 1.38158e+06
378.81 1.38158e+06
378.885 1.38267e+06
378.96 1.38376e+06
379.035 1.38376e+06
379.11 1.38376e+06
379.185 1.38484e+06
379.26 1.38593e+06
379.335 1.38593e+06
379.41 1.38593e+06
379.485 1.38875e+06
379.56 1.39157e+06
379.635 1.39157e+06
379.71 1.39157e+06
379.785 1.39439e+06
379.86 1.39721e+06
379.935 1.39721e+06
380.01 1.39721e+06
380.085 1.40002e+06
380.16 1.40284e+06
380.235 1.40284e+06
380.31 1.40284e+06
380.385 1.40565e+06
380.46 1.40846e+06
380.535 1.40846e+06
380.61 1.40846e+06
380.685 1.41126e+06
380.76 1.41406e+06
380.835 1.41406e+06
380.91 1.41406e+06
380.985 1.41686e+06
381.06 1.41966e+06
381.135 1.41966e+06
381.21 1.41966e+06
381.285 1.42245e+06
381.36 1.42525e+06
381.435 1.42525e+06
381.51 1.42525e+06
381.585 1.42804e+06
381.66 1.43083e+06
381.735 1.43083e+06
381.81 1.43083e+06
381.885 1.43362e+06
381.96 1.43641e+06
382.035 1.43641e+06
382.11 1.43641e+06
382.185 1.43919e+06
382.26 1.44197e+06
382.335 1.44197e+06
382.41 1.44197e+06
382.485 1.44113e+06
382.56 1.44028e+06
382.635 1.44028e+06
382.71 1.44028e+06
382.785 1.43944e+06
382.86 1.4386e+06
382.935 1.4386e+06
383.01 1.4386e+06
383.085 1.43775e+06
383.16 1.43691e+06
383.235 1.43691e+06
383.31 1.43691e+06
383.385 1.43607e+06
383.46 1.43523e+06
383.535 1.43523e+06
383.61 1.43523e+06
383.685 1.43439e+06
383.76 1.43355e+06
383.835 1.43355e+06
383.91 1.43355e+06
383.985 1.43271e+06
384.06 1.43187e+06
384.135 1.43187e+06
384.21 1.43187e+06
384.285 1.43103e+06
384.36 1.4302e+06
384.435 1.4302e+06
384.51 1.4302e+06
384.585 1.42936e+06
384.66 1.42853e+06
384.735 1.42853e+06
384.81 1.42853e+06
384.885 1.42769e+06
384.96 1.42686e+06
385.035 1.42686e+06
385.11 1.42686e+06
385.185 1.42603e+06
385.26 1.42519e+06
385.335 1.42519e+06
385.41 1.42519e+06
385.485 1.41284e+06
385.56 1.40048e+06
385.635 1.40048e+06
385.71 1.40048e+06
385.785 1.38815e+06
385.86 1.37582e+06
385.935 1.37582e+06
386.01 1.37582e+06
386.085 1.3635e+06
386.16 1.35119e+06
386.235 1.35119e+06
386.31 1.35119e+06
386.385 1.33889e+06
386.46 1.32659e+06
386.535 1.32659e+06
386.61 1.32659e+06
386.685 1.31432e+06
386.76 1.30204e+06
386.835 1.30204e+06
386.91 1.30204e+06
386.985 1.28978e+06
387.06 1.27753e+06
387.135 1.27753e+06
387.21 1.27753e+06
387.285 1.26529e+06
387.36 1.25305e+06
387.435 1.25305e+06
387.51 1.25305e+06
387.585 1.24083e+06
387.66 1.22861e+06
387.735 1.22861e+06
387.81 1.22861e+06
387.885 1.21641e+06
387.96 1.20421e+06
388.035 1.20421e+06
388.11 1.20421e+06
388.185 1.19203e+06
388.26 1.17985e+06
388.335 1.17985e+06
388.41 1.17985e+06
388.485 1.18234e+06
388.56 1.18484e+06
388.635 1.18484e+06
388.71 1.18484e+06
388.785 1.18733e+06
388.86 1.18983e+06
388.935 1.18983e+06
389.01 1.18983e+06
389.085 1.19232e+06
389.16 1.19481e+06
389.235 1.19481e+06
389.31 1.19481e+06
389.385 1.1973e+06
389.46 1.19978e+06
389.535 1.19978e+06
389.61 1.19978e+06
389.685 1.20227e+06
389.76 1.20475e+06
389.835 1.20475e+06
389.91 1.20475e+06
389.985 1.20722e+06
390.06 1.2097e+06
390.135 1.2097e+06
390.21 1.2097e+06
390.285 1.21218e+06
390.36 1.21465e+06
390.435 1.21465e+06
390.51 1.21465e+06
390.585 1.21713e+06
390.66 1.2196e+06
390.735 1.2196e+06
390.81 1.2196e+06
390.885 1.22207e+06
390.96 1.22453e+06
391.035 1.22453e+06
391.11 1.22453e+06
391.185 1.227e+06
391.26 1.22946e+06
391.335 1.22946e+06
391.41 1.22946e+06
391.485 1.23724e+06
391.56 1.24502e+06
391.635 1.24502e+06
391.71 1.24502e+06
391.785 1.25279e+06
391.86 1.26056e+06
391.935 1.26056e+06
392.01 1.26056e+06
392.085 1.26832e+06
392.16 1.27607e+06
392.235 1.27607e+06
392.31 1.27607e+06
392.385 1.28382e+06
392.46 1.29156e+06
392.535 1.29156e+06
392.61 1.29156e+06
392.685 1.29929e+06
392.76 1.30703e+06
392.835 1.30703e+06
392.91 1.30703e+06
392.985 1.31475e+06
393.06 1.32247e+06
393.135 1.32247e+06
393.21 1.32247e+06
393.285 1.33018e+06
393.36 1.33789e+06
393.435 1.33789e+06
393.51 1.33789e+06
393.585 1.34559e+06
393.66 1.35328e+06
393.735 1.35328e+06
393.81 1.35328e+06
393.885 1.36097e+06
393.96 1.36866e+06
394.035 1.36866e+06
394.11 1.36866e+06
394.185 1.37633e+06
394.26 1.384e+06
394.335 1.384e+06
394.41 1.384e+06
394.485 1.37929e+06
394.56 1.37459e+06
394.635 1.37459e+06
394.71 1.37459e+06
394.785 1.36988e+06
394.86 1.36518e+06
394.935 1.36518e+06
395.01 1.36518e+06
395.085 1.36048e+06
395.16 1.35579e+06
395.235 1.35579e+06
395.31 1.35579e+06
395.385 1.3511e+06
395.46 1.34641e+06
395.535 1.34641e+06
395.61 1.34641e+06
395.685 1.34173e+06
395.76 1.33705e+06
395.835 1.33705e+06
395.91 1.33705e+06
395.985 1.33238e+06
396.06 1.3277e+06
396.135 1.3277e+06
396.21 1.3277e+06
396.285 1.32303e+06
396.36 1.31836e+06
396.435 1.31836e+06
396.51 1.31836e+06
396.585 1.3137e+06
396.66 1.30904e+06
396.735 1.30904e+06
396.81 1.30904e+06
396.885 1.30439e+06
396.96 1.29974e+06
397.035 1.29974e+06
397.11 1.29974e+06
397.185 1.29509e+06
397.26 1.29045e+06
397.335 1.29045e+06
397.41 1.29045e+06
397.485 1.28784e+06
397.56 1.28524e+06
397.635 1.28524e+06
397.71 1.28524e+06
397.785 1.28263e+06
397.86 1.28003e+06
397.935 1.28003e+06
398.01 1.28003e+06
398.085 1.27743e+06
398.16 1.27483e+06
398.235 1.27483e+06
398.31 1.27483e+06
398.385 1.27224e+06
398.46 1.26965e+06
398.535 1.26965e+06
398.61 1.26965e+06
398.685 1.26706e+06
398.76 1.26447e+06
398.835 1.26447e+06
398.91 1.26447e+06
398.985 1.26188e+06
399.06 1.25929e+06
399.135 1.25929e+06
399.21 1.25929e+06
399.285 1.25671e+06
399.36 1.25412e+06
399.435 1.25412e+06
399.51 1.25412e+06
399.585 1.25155e+06
399.66 1.24897e+06
399.735 1.24897e+06
399.81 1.24897e+06
399.885 1.24639e+06
399.96 1.24381e+06
400.035 1.24381e+06
400.11 1.24381e+06
400.185 1.24124e+06
400.26 1.23867e+06
400.335 1.23867e+06
400.41 1.23867e+06
400.485 1.23987e+06
400.56 1.24107e+06
400.635 1.24107e+06
400.71 1.24107e+06
400.785 1.24226e+06
400.86 1.24345e+06
400.935 1.24345e+06
401.01 1.24345e+06
401.085 1.24465e+06
401.16 1.24584e+06
401.235 1.24584e+06
401.31 1.24584e+06
401.385 1.24703e+06
401.46 1.24822e+06
401.535 1.24822e+06
401.61 1.24822e+06
401.685 1.24941e+06
401.76 1.2506e+06
401.835 1.2506e+06
401.91 1.2506e+06
401.985 1.25178e+06
402.06 1.25297e+06
402.135 1.25297e+06
402.21 1.25297e+06
402.285 1.25416e+06
402.36 1.25534e+06
402.435 1.25534e+06
402.51 1.25534e+06
402.585 1.25652e+06
402.66 1.25771e+06
402.735 1.25771e+06
402.81 1.25771e+06
402.885 1.25889e+06
402.96 1.26007e+06
403.035 1.26007e+06
403.11 1.26007e+06
403.185 1.26125e+06
403.26 1.26243e+06
403.335 1.26243e+06
403.41 1.26243e+06
403.485 1.26123e+06
403.56 1.26002e+06
403.635 1.26002e+06
403.71 1.26002e+06
403.785 1.25882e+06
403.86 1.25762e+06
403.935 1.25762e+06
404.01 1.25762e+06
404.085 1.25643e+06
404.16 1.25523e+06
404.235 1.25523e+06
404.31 1.25523e+06
404.385 1.25403e+06
404.46 1.25283e+06
404.535 1.25283e+06
404.61 1.25283e+06
404.685 1.25164e+06
404.76 1.25045e+06
404.835 1.25045e+06
404.91 1.25045e+06
404.985 1.24925e+06
405.06 1.24805e+06
405.135 1.24805e+06
405.21 1.24805e+06
405.285 1.24686e+06
405.36 1.24567e+06
405.435 1.24567e+06
405.51 1.24567e+06
405.585 1.24448e+06
405.66 1.24329e+06
405.735 1.24329e+06
405.81 1.24329e+06
405.885 1.2421e+06
405.96 1.24092e+06
406.035 1.24092e+06
406.11 1.24092e+06
406.185 1.23973e+06
406.26 1.23854e+06
406.335 1.23854e+06
406.41 1.23854e+06
406.485 1.23368e+06
406.56 1.22882e+06
406.635 1.22882e+06
406.71 1.22882e+06
406.785 1.22397e+06
406.86 1.21912e+06
406.935 1.21912e+06
407.01 1.21912e+06
407.085 1.21427e+06
407.16 1.20943e+06
407.235 1.20943e+06
407.31 1.20943e+06
407.385 1.20459e+06
407.46 1.19975e+06
407.535 1.19975e+06
407.61 1.19975e+06
407.685 1.19492e+06
407.76 1.19009e+06
407.835 1.19009e+06
407.91 1.19009e+06
407.985 1.18526e+06
408.06 1.18044e+06
408.135 1.18044e+06
408.21 1.18044e+06
408.285 1.17562e+06
408.36 1.1708e+06
408.435 1.1708e+06
408.51 1.1708e+06
408.585 1.16599e+06
408.66 1.16118e+06
408.735 1.16118e+06
408.81 1.16118e+06
408.885 1.15638e+06
408.96 1.15158e+06
409.035 1.15158e+06
409.11 1.15158e+06
409.185 1.14678e+06
409.26 1.14199e+06
409.335 1.14199e+06
409.41 1.14199e+06
409.485 1.14013e+06
409.56 1.13828e+06
409.635 1.13828e+06
409.71 1.13828e+06
409.785 1.13643e+06
409.86 1.13458e+06
409.935 1.13458e+06
410.01 1.13458e+06
410.085 1.13273e+06
410.16 1.13088e+06
410.235 1.13088e+06
410.31 1.13088e+06
410.385 1.12904e+06
410.46 1.12719e+06
410.535 1.12719e+06
410.61 1.12719e+06
410.685 1.12535e+06
410.76 1.12351e+06
410.835 1.12351e+06
410.91 1.12351e+06
410.985 1.12167e+06
411.06 1.11982e+06
411.135 1.11982e+06
411.21 1.11982e+06
411.285 1.11799e+06
411.36 1.11615e+06
411.435 1.11615e+06
411.51 1.11615e+06
411.585 1.11432e+06
411.66 1.11248e+06
411.735 1.11248e+06
411.81 1.11248e+06
411.885 1.11065e+06
411.96 1.10882e+06
412.035 1.10882e+06
412.11 1.10882e+06
412.185 1.10699e+06
412.26 1.10516e+06
412.335 1.10516e+06
412.41 1.10516e+06
412.485 1.10363e+06
412.56 1.1021e+06
412.635 1.1021e+06
412.71 1.1021e+06
412.785 1.10058e+06
412.86 1.09906e+06
412.935 1.09906e+06
413.01 1.09906e+06
413.085 1.09753e+06
413.16 1.09601e+06
413.235 1.09601e+06
413.31 1.09601e+06
413.385 1.09449e+06
413.46 1.09297e+06
413.535 1.09297e+06
413.61 1.09297e+06
413.685 1.09145e+06
413.76 1.08994e+06
413.835 1.08994e+06
413.91 1.08994e+06
413.985 1.08842e+06
414.06 1.0869e+06
414.135 1.0869e+06
414.21 1.0869e+06
414.285 1.08539e+06
414.36 1.08388e+06
414.435 1.08388e+06
414.51 1.08388e+06
414.585 1.08237e+06
414.66 1.08085e+06
414.735 1.08085e+06
414.81 1.08085e+06
414.885 1.07935e+06
414.96 1.07784e+06
415.035 1.07784e+06
415.11 1.07784e+06
415.185 1.07633e+06
415.26 1.07482e+06
415.335 1.07482e+06
415.41 1.07482e+06
415.485 1.05795e+06
415.56 1.04108e+06
415.635 1.04108e+06
415.71 1.04108e+06
415.785 1.02422e+06
415.86 1.00737e+06
415.935 1.00737e+06
416.01 1.00737e+06
416.085 990546
416.16 973720
416.235 973720
416.31 973720
416.385 956920
416.46 940119
416.535 940119
416.61 940119
416.685 923340
416.76 906561
416.835 906561
416.91 906561
416.985 889808
417.06 873055
417.135 873055
417.21 873055
417.285 856326
417.36 839597
417.435 839597
417.51 839597
417.585 822891
417.66 806185
417.735 806185
417.81 806185
417.885 789504
417.96 772823
418.035 772823
418.11 772823
418.185 756167
418.26 739510
418.335 739510
418.41 739510
418.485 741589
418.56 743668
418.635 743668
418.71 743668
418.785 745746
418.86 747824
418.935 747824
419.01 747824
419.085 749898
419.16 751972
419.235 751972
419.31 751972
419.385 754045
419.46 756118
419.535 756118
419.61 756118
419.685 758187
419.76 760256
419.835 760256
419.91 760256
419.985 762321
420.06 764386
420.135 764386
420.21 764386
420.285 766449
420.36 768512
420.435 768512
420.51 768512
420.585 770572
420.66 772632
420.735 772632
420.81 772632
420.885 774689
420.96 776747
421.035 776747
421.11 776747
421.185 778800
421.26 780853
421.335 780853
421.41 780853
421.485 789927
421.56 799002
421.635 799002
421.71 799002
421.785 808062
421.86 817123
421.935 817123
422.01 817123
422.085 826172
422.16 835221
422.235 835221
422.31 835221
422.385 844257
422.46 853293
422.535 853293
422.61 853293
422.685 862315
422.76 871338
422.835 871338
422.91 871338
422.985 880349
423.06 889360
423.135 889360
423.21 889360
423.285 898357
423.36 907354
423.435 907354
423.51 907354
423.585 916338
423.66 925322
423.735 925322
423.81 925322
423.885 934295
423.96 943268
424.035 943268
424.11 943268
424.185 952224
424.26 961181
424.335 961181
424.41 961181
424.485 959332
424.56 957483
424.635 957483
424.71 957483
424.785 955630
424.86 953778
424.935 953778
425.01 953778
425.085 951933
425.16 950088
425.235 950088
425.31 950088
425.385 948245
425.46 946401
425.535 946401
425.61 946401
425.685 944558
425.76 942716
425.835 942716
425.91 942716
425.985 940876
426.06 939036
426.135 939036
426.21 939036
426.285 937200
426.36 935364
426.435 935364
426.51 935364
426.585 933530
426.66 931696
426.735 931696
426.81 931696
426.885 929865
426.96 928033
427.035 928033
427.11 928033
427.185 926203
427.26 924374
427.335 924374
427.41 924374
427.485 926351
427.56 928327
427.635 928327
427.71 928327
427.785 930300
427.86 932274
427.935 932274
428.01 932274
428.085 934243
428.16 936213
428.235 936213
428.31 936213
428.385 938179
428.46 940145
428.535 940145
428.61 940145
428.685 942110
428.76 944075
428.835 944075
428.91 944075
428.985 946036
429.06 947998
429.135 947998
429.21 947998
429.285 949956
429.36 951915
429.435 951915
429.51 951915
429.585 953874
429.66 955833
429.735 955833
429.81 955833
429.885 957785
429.96 959738
430.035 959738
430.11 959738
430.185 961690
430.26 963641
430.335 963641
430.41 963641
430.485 964633
430.56 965625
430.635 965625
430.71 965625
430.785 966618
430.86 967611
430.935 967611
431.01 967611
431.085 968603
431.16 969595
431.235 969595
431.31 969595
431.385 970584
431.46 971573
431.535 971573
431.61 971573
431.685 972561
431.76 973549
431.835 973549
431.91 973549
431.985 974534
432.06 975519
432.135 975519
432.21 975519
432.285 976506
432.36 977493
432.435 977493
432.51 977493
432.585 975584
432.66 973675
432.735 973675
432.81 973675
432.885 971766
432.96 969858
433.035 969858
433.11 969858
433.185 967955
433.26 966052
433.335 966052
433.41 966052
433.485 964149
433.56 962246
433.635 962246
433.71 962246
433.785 960348
433.86 958450
433.935 958450
434.01 958450
434.085 956359
434.16 954267
434.235 954267
434.31 954267
434.385 952178
434.46 950089
434.535 950089
434.61 950089
434.685 948004
434.76 945920
434.835 945920
434.91 945920
434.985 943838
435.06 941756
435.135 941756
435.21 941756
435.285 939676
435.36 937597
435.435 937597
435.51 937597
435.585 935522
435.66 933447
435.735 933447
435.81 933447
435.885 931375
435.96 929303
436.035 929303
436.11 929303
436.185 927232
436.26 925161
436.335 925161
436.41 925161
436.485 921152
436.56 917143
436.635 917143
436.71 917143
436.785 913138
436.86 909133
436.935 909133
437.01 909133
437.085 905138
437.16 901143
437.235 901143
437.31 901143
437.385 897151
437.46 893159
437.535 893159
437.61 893159
437.685 889172
437.76 885185
437.835 885185
437.91 885185
437.985 881203
438.06 877221
438.135 877221
438.21 877221
438.285 873245
438.36 869270
438.435 869270
438.51 869270
438.585 865302
438.66 861333
438.735 861333
438.81 861333
438.885 857369
438.96 853404
439.035 853404
439.11 853404
439.185 849444
439.26 845485
439.335 845485
439.41 845485
439.485 846494
439.56 847503
439.635 847503
439.71 847503
439.785 848511
439.86 849518
439.935 849518
440.01 849518
440.085 850525
440.16 851532
440.235 851532
440.31 851532
440.385 852538
440.46 853545
440.535 853545
440.61 853545
440.685 854546
440.76 855548
440.835 855548
440.91 855548
440.985 856551
441.06 857553
441.135 857553
441.21 857553
441.285 858555
441.36 859557
441.435 859557
441.51 859557
441.585 860556
441.66 861555
441.735 861555
441.81 861555
441.885 862555
441.96 863554
442.035 863554
442.11 863554
442.185 864550
442.26 865546
442.335 865546
442.41 865546
442.485 865076
442.56 864607
442.635 864607
442.71 864607
442.785 864136
442.86 863666
442.935 863666
443.01 863666
443.085 863196
443.16 862726
443.235 862726
443.31 862726
443.385 862259
443.46 861792
443.535 861792
443.61 861792
443.685 861325
443.76 860857
443.835 860857
443.91 860857
443.985 860390
444.06 859923
444.135 859923
444.21 859923
444.285 859454
444.36 858985
444.435 858985
444.51 858985
444.585 858520
444.66 858055
444.735 858055
444.81 858055
444.885 857590
444.96 857125
445.035 857125
445.11 857125
445.185 856660
445.26 856195
445.335 856195
445.41 856195
445.485 855238
445.56 854280
445.635 854280
445.71 854280
445.785 853326
445.86 852372
445.935 852372
446.01 852372
446.085 851418
446.16 850464
446.235 850464
446.31 850464
446.385 849511
446.46 848559
446.535 848559
446.61 848559
446.685 847608
446.76 846657
446.835 846657
446.91 846657
446.985 845709
447.06 844760
447.135 844760
447.21 844760
447.285 843811
447.36 842862
447.435 842862
447.51 842862
447.585 841915
447.66 840968
447.735 840968
447.81 840968
447.885 840020
447.96 839073
448.035 839073
448.11 839073
448.185 838129
448.26 837185
448.335 837185
448.41 837185
448.485 833103
448.56 829021
448.635 829021
448.71 829021
448.785 824944
448.86 820866
448.935 820866
449.01 820866
449.085 816795
449.16 812725
449.235 812725
449.31 812725
449.385 808660
449.46 804595
449.535 804595
449.61 804595
449.685 800535
449.76 796475
449.835 796475
449.91 796475
449.985 792418
450.06 788362
450.135 788362
450.21 788362
450.285 784313
450.36 780265
450.435 780265
450.51 780265
450.585 776221
450.66 772178
450.735 772178
450.81 772178
450.885 768139
450.96 764100
451.035 764100
451.11 764100
451.185 760067
451.26 756034
451.335 756034
451.41 756034
451.485 749443
451.56 742852
451.635 742852
451.71 742852
451.785 736270
451.86 729688
451.935 729688
452.01 729688
452.085 723115
452.16 716542
452.235 716542
452.31 716542
452.385 709977
452.46 703411
452.535 703411
452.61 703411
452.685 696857
452.76 690302
452.835 690302
452.91 690302
452.985 683754
453.06 677206
453.135 677206
453.21 677206
453.285 670668
453.36 664130
453.435 664130
453.51 664130
453.585 666444
453.66 668759
453.735 668759
453.81 668759
453.885 671070
453.96 673381
454.035 673381
454.11 673381
454.185 675691
454.26 678001
454.335 678001
454.41 678001
454.485 680307
454.56 682612
454.635 682612
454.71 682612
454.785 684914
454.86 687216
454.935 687216
455.01 687216
455.085 688673
455.16 690130
455.235 690130
455.31 690130
455.385 691584
455.46 693037
455.535 693037
455.61 693037
455.685 694489
455.76 695941
455.835 695941
455.91 695941
455.985 697390
456.06 698839
456.135 698839
456.21 698839
456.285 700289
456.36 701739
456.435 701739
456.51 701739
456.585 703183
456.66 704628
456.735 704628
456.81 704628
456.885 706074
456.96 707519
457.035 707519
457.11 707519
457.185 708960
457.26 710401
457.335 710401
457.41 710401
457.485 704177
457.56 697954
457.635 697954
457.71 697954
457.785 691740
457.86 685526
457.935 685526
458.01 685526
458.085 679319
458.16 673111
458.235 673111
458.31 673111
458.385 666912
458.46 660713
458.535 660713
458.61 660713
458.685 654522
458.76 648330
458.835 648330
458.91 648330
458.985 642148
459.06 635966
459.135 635966
459.21 635966
459.285 629791
459.36 623615
459.435 623615
459.51 623615
459.585 617449
459.66 611282
459.735 611282
459.81 611282
459.885 605124
459.96 598965
460.035 598965
460.11 598965
460.185 592815
460.26 586665
460.335 586665
460.41 586665
460.485 584688
460.56 582712
460.635 582712
460.71 582712
460.785 580739
460.86 578766
460.935 578766
461.01 578766
461.085 576795
461.16 574824
461.235 574824
461.31 574824
461.385 572857
461.46 570890
461.535 570890
461.61 570890
461.685 568924
461.76 566958
461.835 566958
461.91 566958
461.985 564995
462.06 563031
462.135 563031
462.21 563031
462.285 561071
462.36 559111
462.435 559111
462.51 559111
462.585 557153
462.66 555195
462.735 555195
462.81 555195
462.885 553239
462.96 551284
463.035 551284
463.11 551284
463.185 549332
463.26 547381
463.335 547381
463.41 547381
463.485 547076
463.56 546772
463.635 546772
463.71 546772
463.785 546469
463.86 546166
463.935 546166
464.01 546166
464.085 545863
464.16 545559
464.235 545559
464.31 545559
464.385 545255
464.46 544952
464.535 544952
464.61 544952
464.685 544650
464.76 544347
464.835 544347
464.91 544347
464.985 544046
465.06 543744
465.135 543744
465.21 543744
465.285 543442
465.36 543141
465.435 543141
465.51 543141
465.585 542840
465.66 542538
465.735 542538
465.81 542538
465.885 542236
465.96 541935
466.035 541935
466.11 541935
466.185 541635
466.26 541335
466.335 541335
466.41 541335
466.485 544474
466.56 547612
466.635 547612
466.71 547612
466.785 550747
466.86 553883
466.935 553883
467.01 553883
467.085 557013
467.16 560144
467.235 560144
467.31 560144
467.385 563271
467.46 566398
467.535 566398
467.61 566398
467.685 569519
467.76 572641
467.835 572641
467.91 572641
467.985 575760
468.06 578880
468.135 578880
468.21 578880
468.285 581994
468.36 585108
468.435 585108
468.51 585108
468.585 588220
468.66 591332
468.735 591332
468.81 591332
468.885 594439
468.96 597546
469.035 597546
469.11 597546
469.185 600647
469.26 603749
469.335 603749
469.41 603749
469.485 605974
469.56 608199
469.635 608199
469.71 608199
469.785 610420
469.86 612642
469.935 612642
470.01 612642
470.085 614861
470.16 617080
470.235 617080
470.31 617080
470.385 619296
470.46 621512
470.535 621512
470.61 621512
470.685 623725
470.76 625938
470.835 625938
470.91 625938
470.985 628149
471.06 630360
471.135 630360
471.21 630360
471.285 632567
471.36 634775
471.435 634775
471.51 634775
471.585 636980
471.66 639184
471.735 639184
471.81 639184
471.885 641387
471.96 643590
472.035 643590
472.11 643590
472.185 645788
472.26 647986
472.335 647986
472.41 647986
472.485 648166
472.56 648345
472.635 648345
472.71 648345
472.785 648524
472.86 648703
472.935 648703
473.01 648703
473.085 648881
473.16 649060
473.235 649060
473.31 649060
473.385 649238
473.46 649415
473.535 649415
473.61 649415
473.685 649593
473.76 649771
473.835 649771
473.91 649771
473.985 649947
474.06 650123
474.135 650123
474.21 650123
474.285 650303
474.36 650482
474.435 650482
474.51 650482
474.585 650657
474.66 650833
474.735 650833
474.81 650833
474.885 651011
474.96 651188
475.035 651188
475.11 651188
475.185 651365
475.26 651542
475.335 651542
475.41 651542
475.485 651085
475.56 650628
475.635 650628
475.71 650628
475.785 650169
475.86 649709
475.935 649709
476.01 649709
476.085 649254
476.16 648798
476.235 648798
476.31 648798
476.385 648343
476.46 647887
476.535 647887
476.61 647887
476.685 647431
476.76 646975
476.835 646975
476.91 646975
476.985 646520
477.06 646065
477.135 646065
477.21 646065
477.285 645610
477.36 645155
477.435 645155
477.51 645155
477.585 644702
477.66 644248
477.735 644248
477.81 644248
477.885 643795
477.96 643341
478.035 643341
478.11 643341
478.185 642888
478.26 642435
478.335 642435
478.41 642435
478.485 642881
478.56 643328
478.635 643328
478.71 643328
478.785 643774
478.86 644220
478.935 644220
479.01 644220
479.085 644665
479.16 645110
479.235 645110
479.31 645110
479.385 645554
479.46 645998
479.535 645998
479.61 645998
479.685 646441
479.76 646885
479.835 646885
479.91 646885
479.985 647329
480.06 647773
480.135 647773
480.21 647773
480.285 648216
480.36 648659
480.435 648659
480.51 648659
480.585 649100
480.66 649542
480.735 649542
480.81 649542
480.885 649984
480.96 650426
481.035 650426
481.11 650426
481.185 650867
481.26 651308
481.335 651308
481.41 651308
481.485 650425
481.56 649542
481.635 649542
481.71 649542
481.785 648661
481.86 647780
481.935 647780
482.01 647780
482.085 646899
482.16 646017
482.235 646017
482.31 646017
482.385 645138
482.46 644258
482.535 644258
482.61 644258
482.685 643379
482.76 642501
482.835 642501
482.91 642501
482.985 641624
483.06 640747
483.135 640747
483.21 640747
483.285 639870
483.36 638993
483.435 638993
483.51 638993
483.585 638119
483.66 637244
483.735 637244
483.81 637244
483.885 636369
483.96 635493
484.035 635493
484.11 635493
484.185 634620
484.26 633747
484.335 633747
484.41 633747
484.485 633232
484.56 632717
484.635 632717
484.71 632717
484.785 632202
484.86 631688
484.935 631688
485.01 631688
485.085 631173
485.16 630659
485.235 630659
485.31 630659
485.385 630144
485.46 629630
485.535 629630
485.61 629630
485.685 629116
485.76 628603
485.835 628603
485.91 628603
485.985 628090
486.06 627578
486.135 627578
486.21 627578
486.285 627066
486.36 626554
486.435 626554
486.51 626554
486.585 626043
486.66 625532
486.735 625532
486.81 625532
486.885 625020
486.96 624508
487.035 624508
487.11 624508
487.185 623998
487.26 623489
487.335 623489
487.41 623489
487.485 625457
487.56 627425
487.635 627425
487.71 627425
487.785 629389
487.86 631353
487.935 631353
488.01 631353
488.085 633314
488.16 635276
488.235 635276
488.31 635276
488.385 637237
488.46 639197
488.535 639197
488.61 639197
488.685 641153
488.76 643110
488.835 643110
488.91 643110
488.985 645065
489.06 647020
489.135 647020
489.21 647020
489.285 648973
489.36 650925
489.435 650925
489.51 650925
489.585 652874
489.66 654823
489.735 654823
489.81 654823
489.885 656772
489.96 658721
490.035 658721
490.11 658721
490.185 660665
490.26 662610
490.335 662610
490.41 662610
490.485 662557
490.56 662504
490.635 662504
490.71 662504
490.785 662450
490.86 662396
490.935 662396
491.01 662396
491.085 662343
491.16 662289
491.235 662289
491.31 662289
491.385 662237
491.46 662184
491.535 662184
491.61 662184
491.685 662129
491.76 662074
491.835 662074
491.91 662074
491.985 662022
492.06 661970
492.135 661970
492.21 661970
492.285 661916
492.36 661862
492.435 661862
492.51 661862
492.585 661809
492.66 661756
492.735 661756
492.81 661756
492.885 661702
492.96 661648
493.035 661648
493.11 661648
493.185 661595
493.26 661542
493.335 661542
493.41 661542
493.485 661221
493.56 660901
493.635 660901
493.71 660901
493.785 660580
493.86 660259
493.935 660259
494.01 660259
494.085 659937
494.16 659616
494.235 659616
494.31 659616
494.385 659295
494.46 658975
494.535 658975
494.61 658975
494.685 658656
494.76 658336
494.835 658336
494.91 658336
494.985 658017
495.06 657697
495.135 657697
495.21 657697
495.285 657378
495.36 657059
495.435 657059
495.51 657059
495.585 656739
495.66 656420
495.735 656420
495.81 656420
495.885 656102
495.96 655785
496.035 655785
496.11 655785
496.185 655467
496.26 655148
496.335 655148
496.41 655148
496.485 655463
496.56 655779
496.635 655779
496.71 655779
496.785 656094
496.86 656410
496.935 656410
497.01 656410
497.085 656725
497.16 657040
497.235 657040
497.31 657040
497.385 657355
497.46 657669
497.535 657669
497.61 657669
497.685 657984
497.76 658298
497.835 658298
497.91 658298
497.985 658612
498.06 658926
498.135 658926
498.21 658926
498.285 659239
498.36 659552
498.435 659552
498.51 659552
498.585 659866
498.66 660180
498.735 660180
498.81 660180
498.885 660492
498.96 660805
499.035 660805
499.11 660805
499.185 661118
499.26 661430
499.335 661430
499.41 661430
499.485 658880
499.56 656330
499.635 656330
499.71 656330
499.785 653782
499.86 651233
499.935 651233
500.01 651233
500.085 648688
500.16 646144
500.235 646144
500.31 646144
500.385 643603
500.46 641062
500.535 641062
500.61 641062
500.685 638522
500.76 635983
500.835 635983
500.91 635983
500.985 633448
501.06 630913
501.135 630913
501.21 630913
501.285 628380
501.36 625847
501.435 625847
501.51 625847
501.585 632700
501.66 639552
501.735 639552
501.81 639552
501.885 646394
501.96 653236
502.035 653236
502.11 653236
502.185 660071
502.26 666906
502.335 666906
502.41 666906
502.485 673734
502.56 680562
502.635 680562
502.71 680562
502.785 687380
502.86 694198
502.935 694198
503.01 694198
503.085 692601
503.16 691005
503.235 691005
503.31 691005
503.385 689411
503.46 687816
503.535 687816
503.61 687816
503.685 686225
503.76 684634
503.835 684634
503.91 684634
503.985 683042
504.06 681449
504.135 681449
504.21 681449
504.285 679862
504.36 678275
504.435 678275
504.51 678275
504.585 676688
504.66 675101
504.735 675101
504.81 675101
504.885 673518
504.96 671934
505.035 671934
505.11 671934
505.185 670351
505.26 668768
505.335 668768
505.41 668768
505.485 666872
505.56 664975
505.635 664975
505.71 664975
505.785 663081
505.86 661188
505.935 661188
506.01 661188
506.085 659296
506.16 657404
506.235 657404
506.31 657404
506.385 655516
506.46 653627
506.535 653627
506.61 653627
506.685 651739
506.76 649851
506.835 649851
506.91 649851
506.985 647966
507.06 646081
507.135 646081
507.21 646081
507.285 644199
507.36 642317
507.435 642317
507.51 642317
507.585 640437
507.66 638556
507.735 638556
507.81 638556
507.885 636678
507.96 634800
508.035 634800
508.11 634800
508.185 632924
508.26 631048
508.335 631048
508.41 631048
508.485 630269
508.56 629490
508.635 629490
508.71 629490
508.785 628710
508.86 627931
508.935 627931
509.01 627931
509.085 627154
509.16 626376
509.235 626376
509.31 626376
509.385 625599
509.46 624821
509.535 624821
509.61 624821
509.685 624046
509.76 623271
509.835 623271
509.91 623271
509.985 622496
510.06 621721
510.135 621721
510.21 621721
510.285 620947
510.36 620172
510.435 620172
510.51 620172
510.585 619398
510.66 618625
510.735 618625
510.81 618625
510.885 617852
510.96 617079
511.035 617079
511.11 617079
511.185 616307
511.26 615536
511.335 615536
511.41 615536
511.485 613712
511.56 611888
511.635 611888
511.71 611888
511.785 610066
511.86 608244
511.935 608244
512.01 608244
512.085 606424
512.16 604604
512.235 604604
512.31 604604
512.385 602787
512.46 600969
512.535 600969
512.61 600969
512.685 599153
512.76 597336
512.835 597336
512.91 597336
512.985 595523
513.06 593710
513.135 593710
513.21 593710
513.285 591897
513.36 590084
513.435 590084
513.51 590084
513.585 588275
513.66 586466
513.735 586466
513.81 586466
513.885 584659
513.96 582853
514.035 582853
514.11 582853
514.185 581048
514.26 579243
514.335 579243
514.41 579243
514.485 578740
514.56 578237
514.635 578237
514.71 578237
514.785 577734
514.86 577232
514.935 577232
515.01 577232
515.085 576731
515.16 576230
515.235 576230
515.31 576230
515.385 575729
515.46 575228
515.535 575228
515.61 575228
515.685 574727
515.76 574227
515.835 574227
515.91 574227
515.985 573727
516.06 573227
516.135 573227
516.21 573227
516.285 572727
516.36 572228
516.435 572228
516.51 572228
516.585 571730
516.66 571232
516.735 571232
516.81 571232
516.885 570734
516.96 570236
517.035 570236
517.11 570236
517.185 569738
517.26 569241
517.335 569241
517.41 569241
517.485 570443
517.56 571645
517.635 571645
517.71 571645
517.785 572843
517.86 574041
517.935 574041
518.01 574041
518.085 575239
518.16 576438
518.235 576438
518.31 576438
518.385 577633
518.46 578828
518.535 578828
518.61 578828
518.685 580023
518.76 581219
518.835 581219
518.91 581219
518.985 582411
519.06 583604
519.135 583604
519.21 583604
519.285 584796
519.36 585988
519.435 585988
519.51 585988
519.585 587180
519.66 588372
519.735 588372
519.81 588372
519.885 589561
519.96 590750
520.035 590750
520.11 590750
520.185 591938
520.26 593126
520.335 593126
520.41 593126
520.485 592404
520.56 591683
520.635 591683
520.71 591683
520.785 590961
520.86 590238
520.935 590238
521.01 590238
521.085 589518
521.16 588798
521.235 588798
521.31 588798
521.385 588080
521.46 587361
521.535 587361
521.61 587361
521.685 586643
521.76 585924
521.835 585924
521.91 585924
521.985 585206
522.06 584488
522.135 584488
522.21 584488
522.285 583771
522.36 583054
522.435 583054
522.51 583054
522.585 582338
522.66 581621
522.735 581621
522.81 581621
522.885 580906
522.96 580192
523.035 580192
523.11 580192
523.185 579478
523.26 578764
523.335 578764
523.41 578764
523.485 578989
523.56 579214
523.635 579214
523.71 579214
523.785 579441
523.86 579668
523.935 579668
524.01 579668
524.085 579894
524.16 580120
524.235 580120
524.31 580120
524.385 580345
524.46 580570
524.535 580570
524.61 580570
524.685 580797
524.76 581023
524.835 581023
524.91 581023
524.985 581247
525.06 581471
525.135 581471
525.21 581471
525.285 581697
525.36 581922
525.435 581922
525.51 581922
525.585 582148
525.66 582373
525.735 582373
525.81 582373
525.885 582597
525.96 582821
526.035 582821
526.11 582821
526.185 583045
526.26 583269
526.335 583269
526.41 583269
526.485 582853
526.56 582436
526.635 582436
526.71 582436
526.785 582019
526.86 581602
526.935 581602
527.01 581602
527.085 581186
527.16 580770
527.235 580770
527.31 580770
527.385 580355
527.46 579940
527.535 579940
527.61 579940
527.685 579525
527.76 579109
527.835 579109
527.91 579109
527.985 578694
528.06 578278
528.135 578278
528.21 578278
528.285 577865
528.36 577452
528.435 577452
528.51 577452
528.585 577038
528.66 576623
528.735 576623
528.81 576623
528.885 576210
528.96 575797
529.035 575797
529.11 575797
529.185 575385
529.26 574974
529.335 574974
529.41 574974
529.485 572996
529.56 571018
529.635 571018
529.71 571018
529.785 569042
529.86 567065
529.935 567065
530.01 567065
530.085 565093
530.16 563120
530.235 563120
530.31 563120
530.385 561148
530.46 559176
530.535 559176
530.61 559176
530.685 557208
530.76 555240
530.835 555240
530.91 555240
530.985 553273
531.06 551307
531.135 551307
531.21 551307
531.285 549341
531.36 547376
531.435 547376
531.51 547376
531.585 545414
531.66 543452
531.735 543452
531.81 543452
531.885 541492
531.96 539532
532.035 539532
532.11 539532
532.185 537573
532.26 535615
532.335 535615
532.41 535615
532.485 536236
532.56 536858
532.635 536858
532.71 536858
532.785 537479
532.86 538099
532.935 538099
533.01 538099
533.085 538720
533.16 539341
533.235 539341
533.31 539341
533.385 539959
533.46 540578
533.535 540578
533.61 540578
533.685 541197
533.76 541815
533.835 541815
533.91 541815
533.985 542433
534.06 543050
534.135 543050
534.21 543050
534.285 543668
534.36 544286
534.435 544286
534.51 544286
534.585 544902
534.66 545518
534.735 545518
534.81 545518
534.885 546134
534.96 546749
535.035 546749
535.11 546749
535.185 547364
535.26 547979
535.335 547979
535.41 547979
535.485 548602
535.56 549225
535.635 549225
535.71 549225
535.785 549847
535.86 550469
535.935 550469
536.01 550469
536.085 551091
536.16 551713
536.235 551713
536.31 551713
536.385 552333
536.46 552954
536.535 552954
536.61 552954
536.685 553574
536.76 554194
536.835 554194
536.91 554194
536.985 554813
537.06 555431
537.135 555431
537.21 555431
537.285 556051
537.36 556671
537.435 556671
537.51 556671
537.585 557288
537.66 557905
537.735 557905
537.81 557905
537.885 558523
537.96 559142
538.035 559142
538.11 559142
538.185 559758
538.26 560374
538.335 560374
538.41 560374
538.485 560588
538.56 560802
538.635 560802
538.71 560802
538.785 561018
538.86 561234
538.935 561234
539.01 561234
539.085 561447
539.16 561660
539.235 561660
539.31 561660
539.385 561875
539.46 562090
539.535 562090
539.61 562090
539.685 562304
539.76 562517
539.835 562517
539.91 562517
539.985 562731
540.06 562946
540.135 562946
540.21 562946
540.285 563158
540.36 563371
540.435 563371
540.51 563371
540.585 563584
540.66 563798
540.735 563798
540.81 563798
540.885 564010
540.96 564223
541.035 564223
541.11 564223
541.185 564436
541.26 564650
541.335 564650
541.41 564650
541.485 561449
541.56 558248
541.635 558248
541.71 558248
541.785 555052
541.86 551856
541.935 551856
542.01 551856
542.085 548663
542.16 545470
542.235 545470
542.31 545470
542.385 542280
542.46 539089
542.535 539089
542.61 539089
542.685 535903
542.76 532718
542.835 532718
542.91 532718
542.985 529536
543.06 526354
543.135 526354
543.21 526354
543.285 523176
543.36 519997
543.435 519997
543.51 519997
543.585 516821
543.66 513645
543.735 513645
543.81 513645
543.885 510473
543.96 507302
544.035 507302
544.11 507302
544.185 504133
544.26 500965
544.335 500965
544.41 500965
544.485 502029
544.56 503092
544.635 503092
544.71 503092
544.785 504156
544.86 505219
544.935 505219
545.01 505219
545.085 506280
545.16 507341
545.235 507341
545.31 507341
545.385 508401
545.46 509462
545.535 509462
545.61 509462
545.685 510522
545.76 511582
545.835 511582
545.91 511582
545.985 512640
546.06 513698
546.135 513698
546.21 513698
546.285 514756
546.36 515813
546.435 515813
546.51 515813
546.585 516869
546.66 517925
546.735 517925
546.81 517925
546.885 518980
546.96 520035
547.035 520035
547.11 520035
547.185 521088
547.26 522141
547.335 522141
547.41 522141
547.485 521330
547.56 520518
547.635 520518
547.71 520518
547.785 519707
547.86 518896
547.935 518896
548.01 518896
548.085 518084
548.16 517273
548.235 517273
548.31 517273
548.385 516464
548.46 515654
548.535 515654
548.61 515654
548.685 514845
548.76 514036
548.835 514036
548.91 514036
548.985 513227
549.06 512419
549.135 512419
549.21 512419
549.285 511613
549.36 510806
549.435 510806
549.51 510806
549.585 510000
549.66 509195
549.735 509195
549.81 509195
549.885 508389
549.96 507583
550.035 507583
550.11 507583
550.185 506778
550.26 505973
550.335 505973
550.41 505973
550.485 503529
550.56 501085
550.635 501085
550.71 501085
550.785 498642
550.86 496200
550.935 496200
551.01 496200
551.085 493760
551.16 491320
551.235 491320
551.31 491320
551.385 488882
551.46 486444
551.535 486444
551.61 486444
551.685 484010
551.76 481576
551.835 481576
551.91 481576
551.985 479144
552.06 476713
552.135 476713
552.21 476713
552.285 474283
552.36 471854
552.435 471854
552.51 471854
552.585 469428
552.66 467002
552.735 467002
552.81 467002
552.885 464578
552.96 462154
553.035 462154
553.11 462154
553.185 459731
553.26 457309
553.335 457309
553.41 457309
553.485 457744
553.56 458178
553.635 458178
553.71 458178
553.785 458613
553.86 459048
553.935 459048
554.01 459048
554.085 459482
554.16 459917
554.235 459917
554.31 459917
554.385 460350
554.46 460783
554.535 460783
554.61 460783
554.685 461215
554.76 461648
554.835 461648
554.91 461648
554.985 462081
555.06 462513
555.135 462513
555.21 462513
555.285 462946
555.36 463378
555.435 463378
555.51 463378
555.585 463809
555.66 464240
555.735 464240
555.81 464240
555.885 464672
555.96 465103
556.035 465103
556.11 465103
556.185 465534
556.26 465964
556.335 465964
556.41 465964
556.485 466282
556.56 466599
556.635 466599
556.71 466599
556.785 466918
556.86 467237
556.935 467237
557.01 467237
557.085 467556
557.16 467875
557.235 467875
557.31 467875
557.385 468193
557.46 468511
557.535 468511
557.61 468511
557.685 468828
557.76 469145
557.835 469145
557.91 469145
557.985 469462
558.06 469778
558.135 469778
558.21 469778
558.285 470096
558.36 470413
558.435 470413
558.51 470413
558.585 470729
558.66 471046
558.735 471046
558.81 471046
558.885 471361
558.96 471676
559.035 471676
559.11 471676
559.185 471992
559.26 472308
559.335 472308
559.41 472308
559.485 473233
559.56 474159
559.635 474159
559.71 474159
559.785 475082
559.86 476004
559.935 476004
560.01 476004
560.085 476927
560.16 477850
560.235 477850
560.31 477850
560.385 478771
560.46 479693
560.535 479693
560.61 479693
560.685 480612
560.76 481532
560.835 481532
560.91 481532
560.985 482451
561.06 483370
561.135 483370
561.21 483370
561.285 484290
561.36 485209
561.435 485209
561.51 485209
561.585 486125
561.66 487041
561.735 487041
561.81 487041
561.885 487959
561.96 488877
562.035 488877
562.11 488877
562.185 489792
562.26 490707
562.335 490707
562.41 490707
562.485 487909
562.56 485110
562.635 485110
562.71 485110
562.785 482316
562.86 479522
562.935 479522
563.01 479522
563.085 476729
563.16 473937
563.235 473937
563.31 473937
563.385 471148
563.46 468359
563.535 468359
563.61 468359
563.685 465573
563.76 462787
563.835 462787
563.91 462787
563.985 460004
564.06 457222
564.135 457222
564.21 457222
564.285 454442
564.36 451662
564.435 451662
564.51 451662
564.585 448884
564.66 446107
564.735 446107
564.81 446107
564.885 443333
564.96 440558
565.035 440558
565.11 440558
565.185 437788
565.26 435017
565.335 435017
565.41 435017
565.485 433322
565.56 431628
565.635 431628
565.71 431628
565.785 429937
565.86 428245
565.935 428245
566.01 428245
566.085 426555
566.16 424865
566.235 424865
566.31 424865
566.385 423176
566.46 421488
566.535 421488
566.61 421488
566.685 419801
566.76 418114
566.835 418114
566.91 418114
566.985 416430
567.06 414745
567.135 414745
567.21 414745
567.285 413062
567.36 411378
567.435 411378
567.51 411378
567.585 409697
567.66 408016
567.735 408016
567.81 408016
567.885 406335
567.96 404655
568.035 404655
568.11 404655
568.185 402977
568.26 401299
568.335 401299
568.41 401299
568.485 403244
568.56 405189
568.635 405189
568.71 405189
568.785 407131
568.86 409074
568.935 409074
569.01 409074
569.085 411013
569.16 412952
569.235 412952
569.31 412952
569.385 414891
569.46 416831
569.535 416831
569.61 416831
569.685 418767
569.76 420703
569.835 420703
569.91 420703
569.985 422636
570.06 424569
570.135 424569
570.21 424569
570.285 426501
570.36 428432
570.435 428432
570.51 428432
570.585 430363
570.66 432294
570.735 432294
570.81 432294
570.885 434222
570.96 436150
571.035 436150
571.11 436150
571.185 438076
571.26 440001
571.335 440001
571.41 440001
571.485 438531
571.56 437061
571.635 437061
571.71 437061
571.785 435594
571.86 434127
571.935 434127
572.01 434127
572.085 432660
572.16 431194
572.235 431194
572.31 431194
572.385 429728
572.46 428262
572.535 428262
572.61 428262
572.685 426800
572.76 425337
572.835 425337
572.91 425337
572.985 423874
573.06 422412
573.135 422412
573.21 422412
573.285 420952
573.36 419492
573.435 419492
573.51 419492
573.585 418033
573.66 416575
573.735 416575
573.81 416575
573.885 415117
573.96 413660
574.035 413660
574.11 413660
574.185 412204
574.26 410748
574.335 410748
574.41 410748
574.485 409591
574.56 408435
574.635 408435
574.71 408435
574.785 407279
574.86 406123
574.935 406123
575.01 406123
575.085 404968
575.16 403813
575.235 403813
575.31 403813
575.385 402659
575.46 401506
575.535 401506
575.61 401506
575.685 400354
575.76 399202
575.835 399202
575.91 399202
575.985 398051
576.06 396901
576.135 396901
576.21 396901
576.285 395751
576.36 394601
576.435 394601
576.51 394601
576.585 393452
576.66 392304
576.735 392304
576.81 392304
576.885 391157
576.96 390010
577.035 390010
577.11 390010
577.185 388864
577.26 387718
577.335 387718
577.41 387718
577.485 389123
577.56 390529
577.635 390529
577.71 390529
577.785 391934
577.86 393339
577.935 393339
578.01 393339
578.085 394742
578.16 396145
578.235 396145
578.31 396145
578.385 397547
578.46 398949
578.535 398949
578.61 398949
578.685 400349
578.76 401749
578.835 401749
578.91 401749
578.985 403148
579.06 404546
579.135 404546
579.21 404546
579.285 405945
579.36 407343
579.435 407343
579.51 407343
579.585 408739
579.66 410135
579.735 410135
579.81 410135
579.885 411528
579.96 412922
580.035 412922
580.11 412922
580.185 414316
580.26 415709
580.335 415709
580.41 415709
580.485 416263
580.56 416817
580.635 416817
580.71 416817
580.785 417371
580.86 417925
580.935 417925
581.01 417925
581.085 418478
581.16 419031
581.235 419031
581.31 419031
581.385 419584
581.46 420136
581.535 420136
581.61 420136
581.685 420687
581.76 421239
581.835 421239
581.91 421239
581.985 421791
582.06 422343
582.135 422343
582.21 422343
582.285 422893
582.36 423443
582.435 423443
582.51 423443
582.585 423993
582.66 424543
582.735 424543
582.81 424543
582.885 425093
582.96 425642
583.035 425642
583.11 425642
583.185 426192
583.26 426741
583.335 426741
583.41 426741
583.485 424365
583.56 421988
583.635 421988
583.71 421988
583.785 419614
583.86 417240
583.935 417240
584.01 417240
584.085 414867
584.16 412494
584.235 412494
584.31 412494
584.385 410125
584.46 407757
584.535 407757
584.61 407757
584.685 405389
584.76 403022
584.835 403022
584.91 403022
584.985 400657
585.06 398292
585.135 398292
585.21 398292
585.285 395930
585.36 393567
585.435 393567
585.51 393567
585.585 391208
585.66 388849
585.735 388849
585.81 388849
585.885 386491
585.96 384133
586.035 384133
586.11 384133
586.185 381778
586.26 379423
586.335 379423
586.41 379423
586.485 380886
586.56 382349
586.635 382349
586.71 382349
586.785 383809
586.86 385270
586.935 385270
587.01 385270
587.085 386730
587.16 388190
587.235 388190
587.31 388190
587.385 389648
587.46 391106
587.535 391106
587.61 391106
587.685 392563
587.76 394019
587.835 394019
587.91 394019
587.985 395475
588.06 396932
588.135 396932
588.21 396932
588.285 398385
588.36 399838
588.435 399838
588.51 399838
588.585 401290
588.66 402743
588.735 402743
588.81 402743
588.885 404194
588.96 405644
589.035 405644
589.11 405644
589.185 407094
589.26 408543
589.335 408543
589.41 408543
589.485 409992
589.56 411440
589.635 411440
589.71 411440
589.785 412885
589.86 414331
589.935 414331
590.01 414331
590.085 415367
590.16 416403
590.235 416403
590.31 416403
590.385 417438
590.46 418474
590.535 418474
590.61 418474
590.685 419507
590.76 420541
590.835 420541
590.91 420541
590.985 421573
591.06 422606
591.135 422606
591.21 422606
591.285 423637
591.36 424668
591.435 424668
591.51 424668
591.585 425699
591.66 426730
591.735 426730
591.81 426730
591.885 427760
591.96 428790
592.035 428790
592.11 428790
592.185 429818
592.26 430846
592.335 430846
592.41 430846
592.485 431873
592.56 432900
592.635 432900
592.71 432900
592.785 430850
592.86 428799
592.935 428799
593.01 428799
593.085 426750
593.16 424700
593.235 424700
593.31 424700
593.385 422653
593.46 420606
593.535 420606
593.61 420606
593.685 418562
593.76 416517
593.835 416517
593.91 416517
593.985 414474
594.06 412431
594.135 412431
594.21 412431
594.285 410389
594.36 408347
594.435 408347
594.51 408347
594.585 406309
594.66 404270
594.735 404270
594.81 404270
594.885 402234
594.96 400197
595.035 400197
595.11 400197
595.185 399881
595.26 399565
595.335 399565
595.41 399565
595.485 399248
595.56 398931
595.635 398931
595.71 398931
595.785 398616
595.86 398300
595.935 398300
596.01 398300
596.085 397984
596.16 397668
596.235 397668
596.31 397668
596.385 397353
596.46 397038
596.535 397038
596.61 397038
596.685 396724
596.76 396410
596.835 396410
596.91 396410
596.985 396094
597.06 395779
597.135 395779
597.21 395779
597.285 395465
597.36 395150
597.435 395150
597.51 395150
597.585 394837
597.66 394523
597.735 394523
597.81 394523
597.885 394209
597.96 393895
598.035 393895
598.11 393895
598.185 393583
598.26 393270
598.335 393270
598.41 393270
598.485 393989
598.56 394709
598.635 394709
598.71 394709
598.785 395427
598.86 396146
598.935 396146
599.01 396146
599.085 396865
599.16 397584
599.235 397584
599.31 397584
599.385 398302
599.46 399019
599.535 399019
599.61 399019
599.685 399736
599.76 400453
599.835 400453
599.91 400453
599.985 401169
600.06 401886
600.135 401886
600.21 401886
600.285 402602
600.36 403318
600.435 403318
600.51 403318
600.585 404031
600.66 404745
600.735 404745
600.81 404745
600.885 405461
600.96 406176
601.035 406176
601.11 406176
601.185 406889
601.26 407603
601.335 407603
601.41 407603
601.485 407378
601.56 407154
601.635 407154
601.71 407154
601.785 406931
601.86 406707
601.935 406707
602.01 406707
602.085 406483
602.16 406260
602.235 406260
602.31 406260
602.385 406037
602.46 405815
602.535 405815
602.61 405815
602.685 405591
602.76 405367
602.835 405367
602.91 405367
602.985 405145
603.06 404922
603.135 404922
603.21 404922
603.285 404700
603.36 404478
603.435 404478
603.51 404478
603.585 404255
603.66 404032
603.735 404032
603.81 404032
603.885 403811
603.96 403589
604.035 403589
604.11 403589
604.185 403367
604.26 403144
604.335 403144
604.41 403144
604.485 403700
604.56 404255
604.635 404255
604.71 404255
604.785 404810
604.86 405364
604.935 405364
605.01 405364
605.085 405919
605.16 406474
605.235 406474
605.31 406474
605.385 407028
605.46 407581
605.535 407581
605.61 407581
605.685 408134
605.76 408687
605.835 408687
605.91 408687
605.985 409239
606.06 409792
606.135 409792
606.21 409792
606.285 410344
606.36 410897
606.435 410897
606.51 410897
606.585 411448
606.66 411999
606.735 411999
606.81 411999
606.885 412550
606.96 413101
607.035 413101
607.11 413101
607.185 413652
607.26 414202
607.335 414202
607.41 414202
607.485 412236
607.56 410270
607.635 410270
607.71 410270
607.785 408305
607.86 406341
607.935 406341
608.01 406341
608.085 404377
608.16 402413
608.235 402413
608.31 402413
608.385 400453
608.46 398493
608.535 398493
608.61 398493
608.685 396534
608.76 394574
608.835 394574
608.91 394574
608.985 392618
609.06 390661
609.135 390661
609.21 390661
609.285 388706
609.36 386751
609.435 386751
609.51 386751
609.585 384798
609.66 382844
609.735 382844
609.81 382844
609.885 380893
609.96 378942
610.035 378942
610.11 378942
610.185 376993
610.26 375044
610.335 375044
610.41 375044
610.485 375406
610.56 375769
610.635 375769
610.71 375769
610.785 376132
610.86 376494
610.935 376494
611.01 376494
611.085 376856
611.16 377218
611.235 377218
611.31 377218
611.385 377580
611.46 377942
611.535 377942
611.61 377942
611.685 378303
611.76 378665
611.835 378665
611.91 378665
611.985 379026
612.06 379387
612.135 379387
612.21 379387
612.285 379747
612.36 380107
612.435 380107
612.51 380107
612.585 380467
612.66 380827
612.735 380827
612.81 380827
612.885 381187
612.96 381547
613.035 381547
613.11 381547
613.185 381907
613.26 382267
613.335 382267
613.41 382267
613.485 381338
613.56 380409
613.635 380409
613.71 380409
613.785 379481
613.86 378553
613.935 378553
614.01 378553
614.085 377626
614.16 376699
614.235 376699
614.31 376699
614.385 375773
614.46 374847
614.535 374847
614.61 374847
614.685 373922
614.76 372997
614.835 372997
614.91 372997
614.985 372073
615.06 371149
615.135 371149
615.21 371149
615.285 370225
615.36 369302
615.435 369302
615.51 369302
615.585 368379
615.66 367457
615.735 367457
615.81 367457
615.885 366535
615.96 365613
616.035 365613
616.11 365613
616.185 364692
616.26 363771
616.335 363771
616.41 363771
616.485 364027
616.56 364284
616.635 364284
616.71 364284
616.785 364539
616.86 364794
616.935 364794
617.01 364794
617.085 365049
617.16 365304
617.235 365304
617.31 365304
617.385 365558
617.46 365812
617.535 365812
617.61 365812
617.685 366067
617.76 366322
617.835 366322
617.91 366322
617.985 366577
618.06 366831
618.135 366831
618.21 366831
618.285 367085
618.36 367339
618.435 367339
618.51 367339
618.585 367593
618.66 367846
618.735 367846
618.81 367846
618.885 368101
618.96 368355
619.035 368355
619.11 368355
619.185 368608
619.26 368861
619.335 368861
619.41 368861
619.485 370376
619.56 371891
619.635 371891
619.71 371891
619.785 373405
619.86 374919
619.935 374919
620.01 374919
620.085 376431
620.16 377943
620.235 377943
620.31 377943
620.385 379454
620.46 380966
620.535 380966
620.61 380966
620.685 382474
620.76 383983
620.835 383983
620.91 383983
620.985 385491
621.06 386999
621.135 386999
621.21 386999
621.285 388505
621.36 390012
621.435 390012
621.51 390012
621.585 391517
621.66 393023
621.735 393023
621.81 393023
621.885 394526
621.96 396030
622.035 396030
622.11 396030
622.185 390607
622.26 385184
622.335 385184
622.41 385184
622.485 379766
622.56 374349
622.635 374349
622.71 374349
622.785 368936
622.86 363523
622.935 363523
623.01 363523
623.085 358115
623.16 352708
623.235 352708
623.31 352708
623.385 354052
623.46 355395
623.535 355395
623.61 355395
623.685 356738
623.76 358081
623.835 358081
623.91 358081
623.985 359422
624.06 360764
624.135 360764
624.21 360764
624.285 362104
624.36 363445
624.435 363445
624.51 363445
624.585 364783
624.66 366122
624.735 366122
624.81 366122
624.885 367459
624.96 368796
625.035 368796
625.11 368796
625.185 370133
625.26 371469
625.335 371469
625.41 371469
625.485 370302
625.56 369135
625.635 369135
625.71 369135
625.785 367969
625.86 366803
625.935 366803
626.01 366803
626.085 365639
626.16 364475
626.235 364475
626.31 364475
626.385 363311
626.46 362147
626.535 362147
626.61 362147
626.685 360985
626.76 359822
626.835 359822
626.91 359822
626.985 358661
627.06 357499
627.135 357499
627.21 357499
627.285 356339
627.36 355179
627.435 355179
627.51 355179
627.585 354020
627.66 352861
627.735 352861
627.81 352861
627.885 351703
627.96 350545
628.035 350545
628.11 350545
628.185 349388
628.26 348231
628.335 348231
628.41 348231
628.485 348930
628.56 349629
628.635 349629
628.71 349629
628.785 350329
628.86 351028
628.935 351028
629.01 351028
629.085 351726
629.16 352423
629.235 352423
629.31 352423
629.385 353121
629.46 353818
629.535 353818
629.61 353818
629.685 354515
629.76 355211
629.835 355211
629.91 355211
629.985 355908
630.06 356604
630.135 356604
630.21 356604
630.285 357299
630.36 357993
630.435 357993
630.51 357993
630.585 358688
630.66 359382
630.735 359382
630.81 359382
630.885 360077
630.96 360772
631.035 360772
631.11 360772
631.185 361465
631.26 362158
631.335 362158
631.41 362158
631.485 362205
631.56 362252
631.635 362252
631.71 362252
631.785 362299
631.86 362345
631.935 362345
632.01 362345
632.085 362393
632.16 362440
632.235 362440