lam(nm) Flux (10^-20 J/s/m2/um)
324.735 2.43408e+06
324.81 2.43408e+06
324.885 2.41575e+06
324.96 2.39742e+06
325.035 2.39742e+06
325.11 2.39742e+06
325.185 2.37913e+06
325.26 2.36084e+06
325.335 2.36084e+06
325.41 2.36084e+06
325.485 2.38305e+06
325.56 2.40525e+06
325.635 2.40525e+06
325.71 2.40525e+06
325.785 2.42742e+06
325.86 2.44959e+06
325.935 2.44959e+06
326.01 2.44959e+06
326.085 2.47172e+06
326.16 2.49384e+06
326.235 2.49384e+06
326.31 2.49384e+06
326.385 2.51593e+06
326.46 2.53802e+06
326.535 2.53802e+06
326.61 2.53802e+06
326.685 2.56007e+06
326.76 2.58211e+06
326.835 2.58211e+06
326.91 2.58211e+06
326.985 2.60412e+06
327.06 2.62612e+06
327.135 2.62612e+06
327.21 2.62612e+06
327.285 2.64809e+06
327.36 2.67006e+06
327.435 2.67006e+06
327.51 2.67006e+06
327.585 2.69199e+06
327.66 2.71391e+06
327.735 2.71391e+06
327.81 2.71391e+06
327.885 2.7358e+06
327.96 2.75768e+06
328.035 2.75768e+06
328.11 2.75768e+06
328.185 2.77953e+06
328.26 2.80137e+06
328.335 2.80137e+06
328.41 2.80137e+06
328.485 2.79003e+06
328.56 2.77868e+06
328.635 2.77868e+06
328.71 2.77868e+06
328.785 2.76735e+06
328.86 2.75602e+06
328.935 2.75602e+06
329.01 2.75602e+06
329.085 2.74472e+06
329.16 2.73342e+06
329.235 2.73342e+06
329.31 2.73342e+06
329.385 2.72213e+06
329.46 2.71084e+06
329.535 2.71084e+06
329.61 2.71084e+06
329.685 2.69957e+06
329.76 2.68831e+06
329.835 2.68831e+06
329.91 2.68831e+06
329.985 2.67706e+06
330.06 2.66582e+06
330.135 2.66582e+06
330.21 2.66582e+06
330.285 2.6546e+06
330.36 2.64337e+06
330.435 2.64337e+06
330.51 2.64337e+06
330.585 2.63216e+06
330.66 2.62096e+06
330.735 2.62096e+06
330.81 2.62096e+06
330.885 2.60978e+06
330.96 2.59859e+06
331.035 2.59859e+06
331.11 2.59859e+06
331.185 2.58743e+06
331.26 2.57627e+06
331.335 2.57627e+06
331.41 2.57627e+06
331.485 2.57319e+06
331.56 2.57011e+06
331.635 2.57011e+06
331.71 2.57011e+06
331.785 2.56702e+06
331.86 2.56394e+06
331.935 2.56394e+06
332.01 2.56394e+06
332.085 2.56087e+06
332.16 2.5578e+06
332.235 2.5578e+06
332.31 2.5578e+06
332.385 2.55474e+06
332.46 2.55167e+06
332.535 2.55167e+06
332.61 2.55167e+06
332.685 2.5486e+06
332.76 2.54554e+06
332.835 2.54554e+06
332.91 2.54554e+06
332.985 2.54248e+06
333.06 2.53942e+06
333.135 2.53942e+06
333.21 2.53942e+06
333.285 2.53637e+06
333.36 2.53332e+06
333.435 2.53332e+06
333.51 2.53332e+06
333.585 2.53028e+06
333.66 2.52724e+06
333.735 2.52724e+06
333.81 2.52724e+06
333.885 2.5242e+06
333.96 2.52116e+06
334.035 2.52116e+06
334.11 2.52116e+06
334.185 2.51813e+06
334.26 2.5151e+06
334.335 2.5151e+06
334.41 2.5151e+06
334.485 2.49084e+06
334.56 2.46657e+06
334.635 2.46657e+06
334.71 2.46657e+06
334.785 2.44236e+06
334.86 2.41815e+06
334.935 2.41815e+06
335.01 2.41815e+06
335.085 2.39398e+06
335.16 2.3698e+06
335.235 2.3698e+06
335.31 2.3698e+06
335.385 2.34567e+06
335.46 2.32154e+06
335.535 2.32154e+06
335.61 2.32154e+06
335.685 2.29746e+06
335.76 2.27337e+06
335.835 2.27337e+06
335.91 2.27337e+06
335.985 2.24933e+06
336.06 2.22528e+06
336.135 2.22528e+06
336.21 2.22528e+06
336.285 2.20128e+06
336.36 2.17729e+06
336.435 2.17729e+06
336.51 2.17729e+06
336.585 2.15333e+06
336.66 2.12937e+06
336.735 2.12937e+06
336.81 2.12937e+06
336.885 2.10545e+06
336.96 2.08154e+06
337.035 2.08154e+06
337.11 2.08154e+06
337.185 2.05767e+06
337.26 2.0338e+06
337.335 2.0338e+06
337.41 2.0338e+06
337.485 2.0597e+06
337.56 2.0856e+06
337.635 2.0856e+06
337.71 2.0856e+06
337.785 2.11146e+06
337.86 2.13732e+06
337.935 2.13732e+06
338.01 2.13732e+06
338.085 2.16314e+06
338.16 2.18895e+06
338.235 2.18895e+06
338.31 2.18895e+06
338.385 2.21472e+06
338.46 2.24049e+06
338.535 2.24049e+06
338.61 2.24049e+06
338.685 2.26621e+06
338.76 2.29193e+06
338.835 2.29193e+06
338.91 2.29193e+06
338.985 2.3176e+06
339.06 2.34328e+06
339.135 2.34328e+06
339.21 2.34328e+06
339.285 2.36891e+06
339.36 2.39454e+06
339.435 2.39454e+06
339.51 2.39454e+06
339.585 2.42013e+06
339.66 2.44572e+06
339.735 2.44572e+06
339.81 2.44572e+06
339.885 2.47125e+06
339.96 2.49679e+06
340.035 2.49679e+06
340.11 2.49679e+06
340.185 2.52228e+06
340.26 2.54778e+06
340.335 2.54778e+06
340.41 2.54778e+06
340.485 2.53743e+06
340.56 2.52707e+06
340.635 2.52707e+06
340.71 2.52707e+06
340.785 2.51673e+06
340.86 2.50639e+06
340.935 2.50639e+06
341.01 2.50639e+06
341.085 2.49607e+06
341.16 2.48574e+06
341.235 2.48574e+06
341.31 2.48574e+06
341.385 2.47544e+06
341.46 2.46514e+06
341.535 2.46514e+06
341.61 2.46514e+06
341.685 2.45486e+06
341.76 2.44458e+06
341.835 2.44458e+06
341.91 2.44458e+06
341.985 2.43431e+06
342.06 2.42405e+06
342.135 2.42405e+06
342.21 2.42405e+06
342.285 2.41379e+06
342.36 2.40354e+06
342.435 2.40354e+06
342.51 2.40354e+06
342.585 2.39331e+06
342.66 2.38308e+06
342.735 2.38308e+06
342.81 2.38308e+06
342.885 2.37287e+06
342.96 2.36265e+06
343.035 2.36265e+06
343.11 2.36265e+06
343.185 2.35246e+06
343.26 2.34227e+06
343.335 2.34227e+06
343.41 2.34227e+06
343.485 2.34305e+06
343.56 2.34384e+06
343.635 2.34384e+06
343.71 2.34384e+06
343.785 2.34462e+06
343.86 2.3454e+06
343.935 2.3454e+06
344.01 2.3454e+06
344.085 2.34618e+06
344.16 2.34697e+06
344.235 2.34697e+06
344.31 2.34697e+06
344.385 2.34775e+06
344.46 2.34853e+06
344.535 2.34853e+06
344.61 2.34853e+06
344.685 2.34931e+06
344.76 2.35008e+06
344.835 2.35008e+06
344.91 2.35008e+06
344.985 2.35086e+06
345.06 2.35164e+06
345.135 2.35164e+06
345.21 2.35164e+06
345.285 2.35242e+06
345.36 2.35319e+06
345.435 2.35319e+06
345.51 2.35319e+06
345.585 2.35397e+06
345.66 2.35474e+06
345.735 2.35474e+06
345.81 2.35474e+06
345.885 2.35552e+06
345.96 2.3563e+06
346.035 2.3563e+06
346.11 2.3563e+06
346.185 2.35706e+06
346.26 2.35783e+06
346.335 2.35783e+06
346.41 2.35783e+06
346.485 2.35464e+06
346.56 2.35145e+06
346.635 2.35145e+06
346.71 2.35145e+06
346.785 2.34825e+06
346.86 2.34506e+06
346.935 2.34506e+06
347.01 2.34506e+06
347.085 2.34187e+06
347.16 2.33869e+06
347.235 2.33869e+06
347.31 2.33869e+06
347.385 2.33551e+06
347.46 2.33232e+06
347.535 2.33232e+06
347.61 2.33232e+06
347.685 2.32915e+06
347.76 2.32598e+06
347.835 2.32598e+06
347.91 2.32598e+06
347.985 2.32281e+06
348.06 2.31964e+06
348.135 2.31964e+06
348.21 2.31964e+06
348.285 2.31647e+06
348.36 2.3133e+06
348.435 2.3133e+06
348.51 2.3133e+06
348.585 2.31014e+06
348.66 2.30698e+06
348.735 2.30698e+06
348.81 2.30698e+06
348.885 2.30383e+06
348.96 2.30068e+06
349.035 2.30068e+06
349.11 2.30068e+06
349.185 2.29753e+06
349.26 2.29438e+06
349.335 2.29438e+06
349.41 2.29438e+06
349.485 2.24459e+06
349.56 2.19481e+06
349.635 2.19481e+06
349.71 2.19481e+06
349.785 2.1451e+06
349.86 2.0954e+06
349.935 2.0954e+06
350.01 2.0954e+06
350.085 2.04578e+06
350.16 1.99616e+06
350.235 1.99616e+06
350.31 1.99616e+06
350.385 1.94662e+06
350.46 1.89708e+06
350.535 1.89708e+06
350.61 1.89708e+06
350.685 1.84764e+06
350.76 1.79819e+06
350.835 1.79819e+06
350.91 1.79819e+06
350.985 1.74882e+06
351.06 1.69945e+06
351.135 1.69945e+06
351.21 1.69945e+06
351.285 1.65017e+06
351.36 1.60089e+06
351.435 1.60089e+06
351.51 1.60089e+06
351.585 1.55169e+06
351.66 1.5025e+06
351.735 1.5025e+06
351.81 1.5025e+06
351.885 1.45338e+06
351.96 1.40427e+06
352.035 1.40427e+06
352.11 1.40427e+06
352.185 1.35524e+06
352.26 1.30621e+06
352.335 1.30621e+06
352.41 1.30621e+06
352.485 1.34879e+06
352.56 1.39137e+06
352.635 1.39137e+06
352.71 1.39137e+06
352.785 1.43388e+06
352.86 1.47639e+06
352.935 1.47639e+06
353.01 1.47639e+06
353.085 1.51883e+06
353.16 1.56126e+06
353.235 1.56126e+06
353.31 1.56126e+06
353.385 1.60363e+06
353.46 1.646e+06
353.535 1.646e+06
353.61 1.646e+06
353.685 1.68829e+06
353.76 1.73058e+06
353.835 1.73058e+06
353.91 1.73058e+06
353.985 1.77281e+06
354.06 1.81503e+06
354.135 1.81503e+06
354.21 1.81503e+06
354.285 1.85718e+06
354.36 1.89933e+06
354.435 1.89933e+06
354.51 1.89933e+06
354.585 1.94141e+06
354.66 1.98349e+06
354.735 1.98349e+06
354.81 1.98349e+06
354.885 2.02549e+06
354.96 2.0675e+06
355.035 2.0675e+06
355.11 2.0675e+06
355.185 2.10944e+06
355.26 2.15138e+06
355.335 2.15138e+06
355.41 2.15138e+06
355.485 2.14342e+06
355.56 2.13546e+06
355.635 2.13546e+06
355.71 2.13546e+06
355.785 2.12752e+06
355.86 2.11957e+06
355.935 2.11957e+06
356.01 2.11957e+06
356.085 2.11164e+06
356.16 2.10371e+06
356.235 2.10371e+06
356.31 2.10371e+06
356.385 2.09578e+06
356.46 2.08786e+06
356.535 2.08786e+06
356.61 2.08786e+06
356.685 2.07996e+06
356.76 2.07205e+06
356.835 2.07205e+06
356.91 2.07205e+06
356.985 2.06416e+06
357.06 2.05627e+06
357.135 2.05627e+06
357.21 2.05627e+06
357.285 2.0484e+06
357.36 2.04052e+06
357.435 2.04052e+06
357.51 2.04052e+06
357.585 2.03265e+06
357.66 2.02478e+06
357.735 2.02478e+06
357.81 2.02478e+06
357.885 2.01693e+06
357.96 2.00907e+06
358.035 2.00907e+06
358.11 2.00907e+06
358.185 2.00124e+06
358.26 1.9934e+06
358.335 1.9934e+06
358.41 1.9934e+06
358.485 1.97127e+06
358.56 1.94915e+06
358.635 1.94915e+06
358.71 1.94915e+06
358.785 1.92706e+06
358.86 1.90498e+06
358.935 1.90498e+06
359.01 1.90498e+06
359.085 1.88293e+06
359.16 1.86088e+06
359.235 1.86088e+06
359.31 1.86088e+06
359.385 1.83886e+06
359.46 1.81685e+06
359.535 1.81685e+06
359.61 1.81685e+06
359.685 1.79487e+06
359.76 1.77289e+06
359.835 1.77289e+06
359.91 1.77289e+06
359.985 1.75096e+06
360.06 1.72902e+06
360.135 1.72902e+06
360.21 1.72902e+06
360.285 1.70711e+06
360.36 1.6852e+06
360.435 1.6852e+06
360.51 1.6852e+06
360.585 1.66334e+06
360.66 1.64147e+06
360.735 1.64147e+06
360.81 1.64147e+06
360.885 1.61964e+06
360.96 1.59781e+06
361.035 1.59781e+06
361.11 1.59781e+06
361.185 1.57601e+06
361.26 1.55422e+06
361.335 1.55422e+06
361.41 1.55422e+06
361.485 1.53846e+06
361.56 1.52271e+06
361.635 1.52271e+06
361.71 1.52271e+06
361.785 1.50698e+06
361.86 1.49124e+06
361.935 1.49124e+06
362.01 1.49124e+06
362.085 1.47554e+06
362.16 1.45984e+06
362.235 1.45984e+06
362.31 1.45984e+06
362.385 1.44416e+06
362.46 1.42847e+06
362.535 1.42847e+06
362.61 1.42847e+06
362.685 1.41282e+06
362.76 1.39716e+06
362.835 1.39716e+06
362.91 1.39716e+06
362.985 1.38154e+06
363.06 1.36591e+06
363.135 1.36591e+06
363.21 1.36591e+06
363.285 1.35031e+06
363.36 1.33471e+06
363.435 1.33471e+06
363.51 1.33471e+06
363.585 1.31914e+06
363.66 1.30356e+06
363.735 1.30356e+06
363.81 1.30356e+06
363.885 1.28801e+06
363.96 1.27245e+06
364.035 1.27245e+06
364.11 1.27245e+06
364.185 1.25693e+06
364.26 1.2414e+06
364.335 1.2414e+06
364.41 1.2414e+06
364.485 1.27333e+06
364.56 1.30526e+06
364.635 1.30526e+06
364.71 1.30526e+06
364.785 1.33714e+06
364.86 1.36902e+06
364.935 1.36902e+06
365.01 1.36902e+06
365.085 1.40085e+06
365.16 1.43267e+06
365.235 1.43267e+06
365.31 1.43267e+06
365.385 1.46445e+06
365.46 1.49622e+06
365.535 1.49622e+06
365.61 1.49622e+06
365.685 1.52794e+06
365.76 1.55967e+06
365.835 1.55967e+06
365.91 1.55967e+06
365.985 1.59134e+06
366.06 1.62301e+06
366.135 1.62301e+06
366.21 1.62301e+06
366.285 1.65462e+06
366.36 1.68624e+06
366.435 1.68624e+06
366.51 1.68624e+06
366.585 1.7178e+06
366.66 1.74937e+06
366.735 1.74937e+06
366.81 1.74937e+06
366.885 1.78088e+06
366.96 1.8124e+06
367.035 1.8124e+06
367.11 1.8124e+06
367.185 1.84386e+06
367.26 1.87532e+06
367.335 1.87532e+06
367.41 1.87532e+06
367.485 1.88683e+06
367.56 1.89834e+06
367.635 1.89834e+06
367.71 1.89834e+06
367.785 1.90984e+06
367.86 1.92133e+06
367.935 1.92133e+06
368.01 1.92133e+06
368.085 1.9328e+06
368.16 1.94427e+06
368.235 1.94427e+06
368.31 1.94427e+06
368.385 1.95573e+06
368.46 1.96718e+06
368.535 1.96718e+06
368.61 1.96718e+06
368.685 1.97862e+06
368.76 1.99006e+06
368.835 1.99006e+06
368.91 1.99006e+06
368.985 2.00147e+06
369.06 2.01289e+06
369.135 2.01289e+06
369.21 2.01289e+06
369.285 2.02429e+06
369.36 2.03569e+06
369.435 2.03569e+06
369.51 2.03569e+06
369.585 2.04707e+06
369.66 2.05844e+06
369.735 2.05844e+06
369.81 2.05844e+06
369.885 2.06981e+06
369.96 2.08117e+06
370.035 2.08117e+06
370.11 2.08117e+06
370.185 2.09251e+06
370.26 2.10386e+06
370.335 2.10386e+06
370.41 2.10386e+06
370.485 2.10313e+06
370.56 2.10241e+06
370.635 2.10241e+06
370.71 2.10241e+06
370.785 2.10169e+06
370.86 2.10096e+06
370.935 2.10096e+06
371.01 2.10096e+06
371.085 2.10024e+06
371.16 2.09953e+06
371.235 2.09953e+06
371.31 2.09953e+06
371.385 2.09881e+06
371.46 2.09809e+06
371.535 2.09809e+06
371.61 2.09809e+06
371.685 2.09737e+06
371.76 2.09665e+06
371.835 2.09665e+06
371.91 2.09665e+06
371.985 2.09594e+06
372.06 2.09522e+06
372.135 2.09522e+06
372.21 2.09522e+06
372.285 2.0945e+06
372.36 2.09379e+06
372.435 2.09379e+06
372.51 2.09379e+06
372.585 2.09307e+06
372.66 2.09235e+06
372.735 2.09235e+06
372.81 2.09235e+06
372.885 2.09164e+06
372.96 2.09092e+06
373.035 2.09092e+06
373.11 2.09092e+06
373.185 2.09021e+06
373.26 2.0895e+06
373.335 2.0895e+06
373.41 2.0895e+06
373.485 2.08441e+06
373.56 2.07931e+06
373.635 2.07931e+06
373.71 2.07931e+06
373.785 2.07423e+06
373.86 2.06915e+06
373.935 2.06915e+06
374.01 2.06915e+06
374.085 2.06408e+06
374.16 2.059e+06
374.235 2.059e+06
374.31 2.059e+06
374.385 2.05393e+06
374.46 2.04886e+06
374.535 2.04886e+06
374.61 2.04886e+06
374.685 2.0438e+06
374.76 2.03875e+06
374.835 2.03875e+06
374.91 2.03875e+06
374.985 2.03369e+06
375.06 2.02863e+06
375.135 2.02863e+06
375.21 2.02863e+06
375.285 2.02359e+06
375.36 2.01855e+06
375.435 2.01855e+06
375.51 2.01855e+06
375.585 2.01352e+06
375.66 2.00848e+06
375.735 2.00848e+06
375.81 2.00848e+06
375.885 2.00345e+06
375.96 1.99842e+06
376.035 1.99842e+06
376.11 1.99842e+06
376.185 1.9934e+06
376.26 1.98839e+06
376.335 1.98839e+06
376.41 1.98839e+06
376.485 1.98999e+06
376.56 1.9916e+06
376.635 1.9916e+06
376.71 1.9916e+06
376.785 1.99321e+06
376.86 1.99482e+06
376.935 1.99482e+06
377.01 1.99482e+06
377.085 1.99642e+06
377.16 1.99801e+06
377.235 1.99801e+06
377.31 1.99801e+06
377.385 1.99961e+06
377.46 2.00121e+06
377.535 2.00121e+06
377.61 2.00121e+06
377.685 2.00281e+06
377.76 2.00441e+06
377.835 2.00441e+06
377.91 2.00441e+06
377.985 2.006e+06
378.06 2.0076e+06
378.135 2.0076e+06
378.21 2.0076e+06
378.285 2.00919e+06
378.36 2.01078e+06
378.435 2.01078e+06
378.51 2.01078e+06
378.585 2.01237e+06
378.66 2.01397e+06
378.735 2.01397e+06
378.81 2.01397e+06
378.885 2.01555e+06
378.96 2.01713e+06
379.035 2.01713e+06
379.11 2.01713e+06
379.185 2.01872e+06
379.26 2.02031e+06
379.335 2.02031e+06
379.41 2.02031e+06
379.485 2.02442e+06
379.56 2.02853e+06
379.635 2.02853e+06
379.71 2.02853e+06
379.785 2.03264e+06
379.86 2.03675e+06
379.935 2.03675e+06
380.01 2.03675e+06
380.085 2.04085e+06
380.16 2.04495e+06
380.235 2.04495e+06
380.31 2.04495e+06
380.385 2.04905e+06
380.46 2.05314e+06
380.535 2.05314e+06
380.61 2.05314e+06
380.685 2.05723e+06
380.76 2.06131e+06
380.835 2.06131e+06
380.91 2.06131e+06
380.985 2.06539e+06
381.06 2.06947e+06
381.135 2.06947e+06
381.21 2.06947e+06
381.285 2.07354e+06
381.36 2.07762e+06
381.435 2.07762e+06
381.51 2.07762e+06
381.585 2.08169e+06
381.66 2.08576e+06
381.735 2.08576e+06
381.81 2.08576e+06
381.885 2.08982e+06
381.96 2.09388e+06
382.035 2.09388e+06
382.11 2.09388e+06
382.185 2.09794e+06
382.26 2.102e+06
382.335 2.102e+06
382.41 2.102e+06
382.485 2.10076e+06
382.56 2.09953e+06
382.635 2.09953e+06
382.71 2.09953e+06
382.785 2.0983e+06
382.86 2.09707e+06
382.935 2.09707e+06
383.01 2.09707e+06
383.085 2.09585e+06
383.16 2.09462e+06
383.235 2.09462e+06
383.31 2.09462e+06
383.385 2.09339e+06
383.46 2.09217e+06
383.535 2.09217e+06
383.61 2.09217e+06
383.685 2.09094e+06
383.76 2.08972e+06
383.835 2.08972e+06
383.91 2.08972e+06
383.985 2.08849e+06
384.06 2.08727e+06
384.135 2.08727e+06
384.21 2.08727e+06
384.285 2.08605e+06
384.36 2.08483e+06
384.435 2.08483e+06
384.51 2.08483e+06
384.585 2.08362e+06
384.66 2.0824e+06
384.735 2.0824e+06
384.81 2.0824e+06
384.885 2.08118e+06
384.96 2.07997e+06
385.035 2.07997e+06
385.11 2.07997e+06
385.185 2.07875e+06
385.26 2.07754e+06
385.335 2.07754e+06
385.41 2.07754e+06
385.485 2.05953e+06
385.56 2.04152e+06
385.635 2.04152e+06
385.71 2.04152e+06
385.785 2.02354e+06
385.86 2.00556e+06
385.935 2.00556e+06
386.01 2.00556e+06
386.085 1.98761e+06
386.16 1.96966e+06
386.235 1.96966e+06
386.31 1.96966e+06
386.385 1.95173e+06
386.46 1.93381e+06
386.535 1.93381e+06
386.61 1.93381e+06
386.685 1.91591e+06
386.76 1.89802e+06
386.835 1.89802e+06
386.91 1.89802e+06
386.985 1.88015e+06
387.06 1.86228e+06
387.135 1.86228e+06
387.21 1.86228e+06
387.285 1.84444e+06
387.36 1.8266e+06
387.435 1.8266e+06
387.51 1.8266e+06
387.585 1.80879e+06
387.66 1.79098e+06
387.735 1.79098e+06
387.81 1.79098e+06
387.885 1.77319e+06
387.96 1.7554e+06
388.035 1.7554e+06
388.11 1.7554e+06
388.185 1.73765e+06
388.26 1.71989e+06
388.335 1.71989e+06
388.41 1.71989e+06
388.485 1.72353e+06
388.56 1.72717e+06
388.635 1.72717e+06
388.71 1.72717e+06
388.785 1.73081e+06
388.86 1.73444e+06
388.935 1.73444e+06
389.01 1.73444e+06
389.085 1.73807e+06
389.16 1.7417e+06
389.235 1.7417e+06
389.31 1.7417e+06
389.385 1.74533e+06
389.46 1.74895e+06
389.535 1.74895e+06
389.61 1.74895e+06
389.685 1.75257e+06
389.76 1.75619e+06
389.835 1.75619e+06
389.91 1.75619e+06
389.985 1.7598e+06
390.06 1.76341e+06
390.135 1.76341e+06
390.21 1.76341e+06
390.285 1.76702e+06
390.36 1.77063e+06
390.435 1.77063e+06
390.51 1.77063e+06
390.585 1.77423e+06
390.66 1.77784e+06
390.735 1.77784e+06
390.81 1.77784e+06
390.885 1.78144e+06
390.96 1.78503e+06
391.035 1.78503e+06
391.11 1.78503e+06
391.185 1.78862e+06
391.26 1.79221e+06
391.335 1.79221e+06
391.41 1.79221e+06
391.485 1.80355e+06
391.56 1.8149e+06
391.635 1.8149e+06
391.71 1.8149e+06
391.785 1.82622e+06
391.86 1.83755e+06
391.935 1.83755e+06
392.01 1.83755e+06
392.085 1.84886e+06
392.16 1.86016e+06
392.235 1.86016e+06
392.31 1.86016e+06
392.385 1.87145e+06
392.46 1.88274e+06
392.535 1.88274e+06
392.61 1.88274e+06
392.685 1.89401e+06
392.76 1.90529e+06
392.835 1.90529e+06
392.91 1.90529e+06
392.985 1.91654e+06
393.06 1.9278e+06
393.135 1.9278e+06
393.21 1.9278e+06
393.285 1.93904e+06
393.36 1.95027e+06
393.435 1.95027e+06
393.51 1.95027e+06
393.585 1.96149e+06
393.66 1.97271e+06
393.735 1.97271e+06
393.81 1.97271e+06
393.885 1.98392e+06
393.96 1.99512e+06
394.035 1.99512e+06
394.11 1.99512e+06
394.185 2.00631e+06
394.26 2.01749e+06
394.335 2.01749e+06
394.41 2.01749e+06
394.485 2.01063e+06
394.56 2.00377e+06
394.635 2.00377e+06
394.71 2.00377e+06
394.785 1.99691e+06
394.86 1.99005e+06
394.935 1.99005e+06
395.01 1.99005e+06
395.085 1.98321e+06
395.16 1.97636e+06
395.235 1.97636e+06
395.31 1.97636e+06
395.385 1.96953e+06
395.46 1.9627e+06
395.535 1.9627e+06
395.61 1.9627e+06
395.685 1.95587e+06
395.76 1.94905e+06
395.835 1.94905e+06
395.91 1.94905e+06
395.985 1.94224e+06
396.06 1.93543e+06
396.135 1.93543e+06
396.21 1.93543e+06
396.285 1.92862e+06
396.36 1.92181e+06
396.435 1.92181e+06
396.51 1.92181e+06
396.585 1.91502e+06
396.66 1.90823e+06
396.735 1.90823e+06
396.81 1.90823e+06
396.885 1.90144e+06
396.96 1.89466e+06
397.035 1.89466e+06
397.11 1.89466e+06
397.185 1.88789e+06
397.26 1.88112e+06
397.335 1.88112e+06
397.41 1.88112e+06
397.485 1.87732e+06
397.56 1.87352e+06
397.635 1.87352e+06
397.71 1.87352e+06
397.785 1.86973e+06
397.86 1.86593e+06
397.935 1.86593e+06
398.01 1.86593e+06
398.085 1.86214e+06
398.16 1.85835e+06
398.235 1.85835e+06
398.31 1.85835e+06
398.385 1.85457e+06
398.46 1.85079e+06
398.535 1.85079e+06
398.61 1.85079e+06
398.685 1.84702e+06
398.76 1.84324e+06
398.835 1.84324e+06
398.91 1.84324e+06
398.985 1.83947e+06
399.06 1.8357e+06
399.135 1.8357e+06
399.21 1.8357e+06
399.285 1.83193e+06
399.36 1.82817e+06
399.435 1.82817e+06
399.51 1.82817e+06
399.585 1.82441e+06
399.66 1.82065e+06
399.735 1.82065e+06
399.81 1.82065e+06
399.885 1.81689e+06
399.96 1.81314e+06
400.035 1.81314e+06
400.11 1.81314e+06
400.185 1.80939e+06
400.26 1.80565e+06
400.335 1.80565e+06
400.41 1.80565e+06
400.485 1.80739e+06
400.56 1.80913e+06
400.635 1.80913e+06
400.71 1.80913e+06
400.785 1.81087e+06
400.86 1.81261e+06
400.935 1.81261e+06
401.01 1.81261e+06
401.085 1.81435e+06
401.16 1.81609e+06
401.235 1.81609e+06
401.31 1.81609e+06
401.385 1.81782e+06
401.46 1.81956e+06
401.535 1.81956e+06
401.61 1.81956e+06
401.685 1.82129e+06
401.76 1.82303e+06
401.835 1.82303e+06
401.91 1.82303e+06
401.985 1.82476e+06
402.06 1.82648e+06
402.135 1.82648e+06
402.21 1.82648e+06
402.285 1.82821e+06
402.36 1.82994e+06
402.435 1.82994e+06
402.51 1.82994e+06
402.585 1.83167e+06
402.66 1.83339e+06
402.735 1.83339e+06
402.81 1.83339e+06
402.885 1.83512e+06
402.96 1.83684e+06
403.035 1.83684e+06
403.11 1.83684e+06
403.185 1.83856e+06
403.26 1.84028e+06
403.335 1.84028e+06
403.41 1.84028e+06
403.485 1.83852e+06
403.56 1.83677e+06
403.635 1.83677e+06
403.71 1.83677e+06
403.785 1.83502e+06
403.86 1.83327e+06
403.935 1.83327e+06
404.01 1.83327e+06
404.085 1.83152e+06
404.16 1.82978e+06
404.235 1.82978e+06
404.31 1.82978e+06
404.385 1.82803e+06
404.46 1.82629e+06
404.535 1.82629e+06
404.61 1.82629e+06
404.685 1.82455e+06
404.76 1.82281e+06
404.835 1.82281e+06
404.91 1.82281e+06
404.985 1.82106e+06
405.06 1.81932e+06
405.135 1.81932e+06
405.21 1.81932e+06
405.285 1.81758e+06
405.36 1.81585e+06
405.435 1.81585e+06
405.51 1.81585e+06
405.585 1.81411e+06
405.66 1.81237e+06
405.735 1.81237e+06
405.81 1.81237e+06
405.885 1.81064e+06
405.96 1.80891e+06
406.035 1.80891e+06
406.11 1.80891e+06
406.185 1.80718e+06
406.26 1.80545e+06
406.335 1.80545e+06
406.41 1.80545e+06
406.485 1.79837e+06
406.56 1.79128e+06
406.635 1.79128e+06
406.71 1.79128e+06
406.785 1.78421e+06
406.86 1.77713e+06
406.935 1.77713e+06
407.01 1.77713e+06
407.085 1.77007e+06
407.16 1.76301e+06
407.235 1.76301e+06
407.31 1.76301e+06
407.385 1.75596e+06
407.46 1.7489e+06
407.535 1.7489e+06
407.61 1.7489e+06
407.685 1.74186e+06
407.76 1.73482e+06
407.835 1.73482e+06
407.91 1.73482e+06
407.985 1.72779e+06
408.06 1.72075e+06
408.135 1.72075e+06
408.21 1.72075e+06
408.285 1.71373e+06
408.36 1.70671e+06
408.435 1.70671e+06
408.51 1.70671e+06
408.585 1.6997e+06
408.66 1.69269e+06
408.735 1.69269e+06
408.81 1.69269e+06
408.885 1.68569e+06
408.96 1.67869e+06
409.035 1.67869e+06
409.11 1.67869e+06
409.185 1.67169e+06
409.26 1.6647e+06
409.335 1.6647e+06
409.41 1.6647e+06
409.485 1.662e+06
409.56 1.6593e+06
409.635 1.6593e+06
409.71 1.6593e+06
409.785 1.6566e+06
409.86 1.6539e+06
409.935 1.6539e+06
410.01 1.6539e+06
410.085 1.65121e+06
410.16 1.64852e+06
410.235 1.64852e+06
410.31 1.64852e+06
410.385 1.64582e+06
410.46 1.64313e+06
410.535 1.64313e+06
410.61 1.64313e+06
410.685 1.64045e+06
410.76 1.63776e+06
410.835 1.63776e+06
410.91 1.63776e+06
410.985 1.63508e+06
411.06 1.63239e+06
411.135 1.63239e+06
411.21 1.63239e+06
411.285 1.62972e+06
411.36 1.62704e+06
411.435 1.62704e+06
411.51 1.62704e+06
411.585 1.62437e+06
411.66 1.62169e+06
411.735 1.62169e+06
411.81 1.62169e+06
411.885 1.61902e+06
411.96 1.61635e+06
412.035 1.61635e+06
412.11 1.61635e+06
412.185 1.61368e+06
412.26 1.61102e+06
412.335 1.61102e+06
412.41 1.61102e+06
412.485 1.60879e+06
412.56 1.60656e+06
412.635 1.60656e+06
412.71 1.60656e+06
412.785 1.60434e+06
412.86 1.60212e+06
412.935 1.60212e+06
413.01 1.60212e+06
413.085 1.5999e+06
413.16 1.59768e+06
413.235 1.59768e+06
413.31 1.59768e+06
413.385 1.59547e+06
413.46 1.59325e+06
413.535 1.59325e+06
413.61 1.59325e+06
413.685 1.59104e+06
413.76 1.58882e+06
413.835 1.58882e+06
413.91 1.58882e+06
413.985 1.58662e+06
414.06 1.58441e+06
414.135 1.58441e+06
414.21 1.58441e+06
414.285 1.5822e+06
414.36 1.58e+06
414.435 1.58e+06
414.51 1.58e+06
414.585 1.57779e+06
414.66 1.57559e+06
414.735 1.57559e+06
414.81 1.57559e+06
414.885 1.57339e+06
414.96 1.57119e+06
415.035 1.57119e+06
415.11 1.57119e+06
415.185 1.56899e+06
415.26 1.56679e+06
415.335 1.56679e+06
415.41 1.56679e+06
415.485 1.5422e+06
415.56 1.5176e+06
415.635 1.5176e+06
415.71 1.5176e+06
415.785 1.49304e+06
415.86 1.46847e+06
415.935 1.46847e+06
416.01 1.46847e+06
416.085 1.44394e+06
416.16 1.41942e+06
416.235 1.41942e+06
416.31 1.41942e+06
416.385 1.39493e+06
416.46 1.37043e+06
416.535 1.37043e+06
416.61 1.37043e+06
416.685 1.34598e+06
416.76 1.32152e+06
416.835 1.32152e+06
416.91 1.32152e+06
416.985 1.2971e+06
417.06 1.27267e+06
417.135 1.27267e+06
417.21 1.27267e+06
417.285 1.24829e+06
417.36 1.2239e+06
417.435 1.2239e+06
417.51 1.2239e+06
417.585 1.19955e+06
417.66 1.1752e+06
417.735 1.1752e+06
417.81 1.1752e+06
417.885 1.15088e+06
417.96 1.12656e+06
418.035 1.12656e+06
418.11 1.12656e+06
418.185 1.10228e+06
418.26 1.078e+06
418.335 1.078e+06
418.41 1.078e+06
418.485 1.08103e+06
418.56 1.08406e+06
418.635 1.08406e+06
418.71 1.08406e+06
418.785 1.08709e+06
418.86 1.09012e+06
418.935 1.09012e+06
419.01 1.09012e+06
419.085 1.09314e+06
419.16 1.09617e+06
419.235 1.09617e+06
419.31 1.09617e+06
419.385 1.09919e+06
419.46 1.10221e+06
419.535 1.10221e+06
419.61 1.10221e+06
419.685 1.10523e+06
419.76 1.10824e+06
419.835 1.10824e+06
419.91 1.10824e+06
419.985 1.11125e+06
420.06 1.11426e+06
420.135 1.11426e+06
420.21 1.11426e+06
420.285 1.11727e+06
420.36 1.12028e+06
420.435 1.12028e+06
420.51 1.12028e+06
420.585 1.12328e+06
420.66 1.12628e+06
420.735 1.12628e+06
420.81 1.12628e+06
420.885 1.12928e+06
420.96 1.13228e+06
421.035 1.13228e+06
421.11 1.13228e+06
421.185 1.13528e+06
421.26 1.13827e+06
421.335 1.13827e+06
421.41 1.13827e+06
421.485 1.1515e+06
421.56 1.16472e+06
421.635 1.16472e+06
421.71 1.16472e+06
421.785 1.17793e+06
421.86 1.19114e+06
421.935 1.19114e+06
422.01 1.19114e+06
422.085 1.20433e+06
422.16 1.21752e+06
422.235 1.21752e+06
422.31 1.21752e+06
422.385 1.23069e+06
422.46 1.24387e+06
422.535 1.24387e+06
422.61 1.24387e+06
422.685 1.25702e+06
422.76 1.27017e+06
422.835 1.27017e+06
422.91 1.27017e+06
422.985 1.28331e+06
423.06 1.29644e+06
423.135 1.29644e+06
423.21 1.29644e+06
423.285 1.30956e+06
423.36 1.32267e+06
423.435 1.32267e+06
423.51 1.32267e+06
423.585 1.33577e+06
423.66 1.34886e+06
423.735 1.34886e+06
423.81 1.34886e+06
423.885 1.36194e+06
423.96 1.37502e+06
424.035 1.37502e+06
424.11 1.37502e+06
424.185 1.38808e+06
424.26 1.40114e+06
424.335 1.40114e+06
424.41 1.40114e+06
424.485 1.39844e+06
424.56 1.39575e+06
424.635 1.39575e+06
424.71 1.39575e+06
424.785 1.39305e+06
424.86 1.39035e+06
424.935 1.39035e+06
425.01 1.39035e+06
425.085 1.38766e+06
425.16 1.38497e+06
425.235 1.38497e+06
425.31 1.38497e+06
425.385 1.38228e+06
425.46 1.37959e+06
425.535 1.37959e+06
425.61 1.37959e+06
425.685 1.37691e+06
425.76 1.37422e+06
425.835 1.37422e+06
425.91 1.37422e+06
425.985 1.37154e+06
426.06 1.36886e+06
426.135 1.36886e+06
426.21 1.36886e+06
426.285 1.36618e+06
426.36 1.3635e+06
426.435 1.3635e+06
426.51 1.3635e+06
426.585 1.36083e+06
426.66 1.35816e+06
426.735 1.35816e+06
426.81 1.35816e+06
426.885 1.35549e+06
426.96 1.35282e+06
427.035 1.35282e+06
427.11 1.35282e+06
427.185 1.35015e+06
427.26 1.34748e+06
427.335 1.34748e+06
427.41 1.34748e+06
427.485 1.35036e+06
427.56 1.35325e+06
427.635 1.35325e+06
427.71 1.35325e+06
427.785 1.35612e+06
427.86 1.359e+06
427.935 1.359e+06
428.01 1.359e+06
428.085 1.36187e+06
428.16 1.36474e+06
428.235 1.36474e+06
428.31 1.36474e+06
428.385 1.36761e+06
428.46 1.37047e+06
428.535 1.37047e+06
428.61 1.37047e+06
428.685 1.37334e+06
428.76 1.3762e+06
428.835 1.3762e+06
428.91 1.3762e+06
428.985 1.37906e+06
429.06 1.38192e+06
429.135 1.38192e+06
429.21 1.38192e+06
429.285 1.38477e+06
429.36 1.38763e+06
429.435 1.38763e+06
429.51 1.38763e+06
429.585 1.39049e+06
429.66 1.39334e+06
429.735 1.39334e+06
429.81 1.39334e+06
429.885 1.39619e+06
429.96 1.39903e+06
430.035 1.39903e+06
430.11 1.39903e+06
430.185 1.40188e+06
430.26 1.40472e+06
430.335 1.40472e+06
430.41 1.40472e+06
430.485 1.40617e+06
430.56 1.40761e+06
430.635 1.40761e+06
430.71 1.40761e+06
430.785 1.40906e+06
430.86 1.41051e+06
430.935 1.41051e+06
431.01 1.41051e+06
431.085 1.41196e+06
431.16 1.4134e+06
431.235 1.4134e+06
431.31 1.4134e+06
431.385 1.41484e+06
431.46 1.41628e+06
431.535 1.41628e+06
431.61 1.41628e+06
431.685 1.41773e+06
431.76 1.41917e+06
431.835 1.41917e+06
431.91 1.41917e+06
431.985 1.4206e+06
432.06 1.42204e+06
432.135 1.42204e+06
432.21 1.42204e+06
432.285 1.42348e+06
432.36 1.42492e+06
432.435 1.42492e+06
432.51 1.42492e+06
432.585 1.42213e+06
432.66 1.41935e+06
432.735 1.41935e+06
432.81 1.41935e+06
432.885 1.41657e+06
432.96 1.41379e+06
433.035 1.41379e+06
433.11 1.41379e+06
433.185 1.41101e+06
433.26 1.40824e+06
433.335 1.40824e+06
433.41 1.40824e+06
433.485 1.40546e+06
433.56 1.40269e+06
433.635 1.40269e+06
433.71 1.40269e+06
433.785 1.39992e+06
433.86 1.39716e+06
433.935 1.39716e+06
434.01 1.39716e+06
434.085 1.39411e+06
434.16 1.39106e+06
434.235 1.39106e+06
434.31 1.39106e+06
434.385 1.38801e+06
434.46 1.38497e+06
434.535 1.38497e+06
434.61 1.38497e+06
434.685 1.38193e+06
434.76 1.37889e+06
434.835 1.37889e+06
434.91 1.37889e+06
434.985 1.37586e+06
435.06 1.37282e+06
435.135 1.37282e+06
435.21 1.37282e+06
435.285 1.36979e+06
435.36 1.36676e+06
435.435 1.36676e+06
435.51 1.36676e+06
435.585 1.36373e+06
435.66 1.36071e+06
435.735 1.36071e+06
435.81 1.36071e+06
435.885 1.35769e+06
435.96 1.35467e+06
436.035 1.35467e+06
436.11 1.35467e+06
436.185 1.35165e+06
436.26 1.34863e+06
436.335 1.34863e+06
436.41 1.34863e+06
436.485 1.34279e+06
436.56 1.33694e+06
436.635 1.33694e+06
436.71 1.33694e+06
436.785 1.3311e+06
436.86 1.32527e+06
436.935 1.32527e+06
437.01 1.32527e+06
437.085 1.31944e+06
437.16 1.31362e+06
437.235 1.31362e+06
437.31 1.31362e+06
437.385 1.3078e+06
437.46 1.30198e+06
437.535 1.30198e+06
437.61 1.30198e+06
437.685 1.29617e+06
437.76 1.29036e+06
437.835 1.29036e+06
437.91 1.29036e+06
437.985 1.28455e+06
438.06 1.27875e+06
438.135 1.27875e+06
438.21 1.27875e+06
438.285 1.27295e+06
438.36 1.26716e+06
438.435 1.26716e+06
438.51 1.26716e+06
438.585 1.26137e+06
438.66 1.25559e+06
438.735 1.25559e+06
438.81 1.25559e+06
438.885 1.24981e+06
438.96 1.24403e+06
439.035 1.24403e+06
439.11 1.24403e+06
439.185 1.23826e+06
439.26 1.23248e+06
439.335 1.23248e+06
439.41 1.23248e+06
439.485 1.23395e+06
439.56 1.23543e+06
439.635 1.23543e+06
439.71 1.23543e+06
439.785 1.23689e+06
439.86 1.23836e+06
439.935 1.23836e+06
440.01 1.23836e+06
440.085 1.23983e+06
440.16 1.2413e+06
440.235 1.2413e+06
440.31 1.2413e+06
440.385 1.24277e+06
440.46 1.24423e+06
440.535 1.24423e+06
440.61 1.24423e+06
440.685 1.24569e+06
440.76 1.24715e+06
440.835 1.24715e+06
440.91 1.24715e+06
440.985 1.24861e+06
441.06 1.25008e+06
441.135 1.25008e+06
441.21 1.25008e+06
441.285 1.25154e+06
441.36 1.253e+06
441.435 1.253e+06
441.51 1.253e+06
441.585 1.25445e+06
441.66 1.25591e+06
441.735 1.25591e+06
441.81 1.25591e+06
441.885 1.25737e+06
441.96 1.25882e+06
442.035 1.25882e+06
442.11 1.25882e+06
442.185 1.26028e+06
442.26 1.26173e+06
442.335 1.26173e+06
442.41 1.26173e+06
442.485 1.26104e+06
442.56 1.26036e+06
442.635 1.26036e+06
442.71 1.26036e+06
442.785 1.25967e+06
442.86 1.25899e+06
442.935 1.25899e+06
443.01 1.25899e+06
443.085 1.2583e+06
443.16 1.25762e+06
443.235 1.25762e+06
443.31 1.25762e+06
443.385 1.25694e+06
443.46 1.25626e+06
443.535 1.25626e+06
443.61 1.25626e+06
443.685 1.25557e+06
443.76 1.25489e+06
443.835 1.25489e+06
443.91 1.25489e+06
443.985 1.25421e+06
444.06 1.25353e+06
444.135 1.25353e+06
444.21 1.25353e+06
444.285 1.25285e+06
444.36 1.25216e+06
444.435 1.25216e+06
444.51 1.25216e+06
444.585 1.25148e+06
444.66 1.25081e+06
444.735 1.25081e+06
444.81 1.25081e+06
444.885 1.25013e+06
444.96 1.24945e+06
445.035 1.24945e+06
445.11 1.24945e+06
445.185 1.24877e+06
445.26 1.2481e+06
445.335 1.2481e+06
445.41 1.2481e+06
445.485 1.2467e+06
445.56 1.2453e+06
445.635 1.2453e+06
445.71 1.2453e+06
445.785 1.24391e+06
445.86 1.24252e+06
445.935 1.24252e+06
446.01 1.24252e+06
446.085 1.24113e+06
446.16 1.23974e+06
446.235 1.23974e+06
446.31 1.23974e+06
446.385 1.23835e+06
446.46 1.23696e+06
446.535 1.23696e+06
446.61 1.23696e+06
446.685 1.23558e+06
446.76 1.23419e+06
446.835 1.23419e+06
446.91 1.23419e+06
446.985 1.23281e+06
447.06 1.23143e+06
447.135 1.23143e+06
447.21 1.23143e+06
447.285 1.23004e+06
447.36 1.22866e+06
447.435 1.22866e+06
447.51 1.22866e+06
447.585 1.22728e+06
447.66 1.2259e+06
447.735 1.2259e+06
447.81 1.2259e+06
447.885 1.22452e+06
447.96 1.22314e+06
448.035 1.22314e+06
448.11 1.22314e+06
448.185 1.22176e+06
448.26 1.22039e+06
448.335 1.22039e+06
448.41 1.22039e+06
448.485 1.21443e+06
448.56 1.20848e+06
448.635 1.20848e+06
448.71 1.20848e+06
448.785 1.20254e+06
448.86 1.1966e+06
448.935 1.1966e+06
449.01 1.1966e+06
449.085 1.19066e+06
449.16 1.18473e+06
449.235 1.18473e+06
449.31 1.18473e+06
449.385 1.1788e+06
449.46 1.17288e+06
449.535 1.17288e+06
449.61 1.17288e+06
449.685 1.16696e+06
449.76 1.16104e+06
449.835 1.16104e+06
449.91 1.16104e+06
449.985 1.15513e+06
450.06 1.14921e+06
450.135 1.14921e+06
450.21 1.14921e+06
450.285 1.14331e+06
450.36 1.13741e+06
450.435 1.13741e+06
450.51 1.13741e+06
450.585 1.13152e+06
450.66 1.12562e+06
450.735 1.12562e+06
450.81 1.12562e+06
450.885 1.11973e+06
450.96 1.11385e+06
451.035 1.11385e+06
451.11 1.11385e+06
451.185 1.10797e+06
451.26 1.10209e+06
451.335 1.10209e+06
451.41 1.10209e+06
451.485 1.09248e+06
451.56 1.08287e+06
451.635 1.08287e+06
451.71 1.08287e+06
451.785 1.07328e+06
451.86 1.06368e+06
451.935 1.06368e+06
452.01 1.06368e+06
452.085 1.0541e+06
452.16 1.04452e+06
452.235 1.04452e+06
452.31 1.04452e+06
452.385 1.03495e+06
452.46 1.02538e+06
452.535 1.02538e+06
452.61 1.02538e+06
452.685 1.01582e+06
452.76 1.00627e+06
452.835 1.00627e+06
452.91 1.00627e+06
452.985 996725
453.06 987180
453.135 987180
453.21 987180
453.285 977649
453.36 968118
453.435 968118
453.51 968118
453.585 971492
453.66 974866
453.735 974866
453.81 974866
453.885 978235
453.96 981604
454.035 981604
454.11 981604
454.185 984971
454.26 988338
454.335 988338
454.41 988338
454.485 991699
454.56 995061
454.635 995061
454.71 995061
454.785 998416
454.86 1.00177e+06
454.935 1.00177e+06
455.01 1.00177e+06
455.085 1.0039e+06
455.16 1.00602e+06
455.235 1.00602e+06
455.31 1.00602e+06
455.385 1.00814e+06
455.46 1.01026e+06
455.535 1.01026e+06
455.61 1.01026e+06
455.685 1.01237e+06
455.76 1.01449e+06
455.835 1.01449e+06
455.91 1.01449e+06
455.985 1.0166e+06
456.06 1.01872e+06
456.135 1.01872e+06
456.21 1.01872e+06
456.285 1.02083e+06
456.36 1.02294e+06
456.435 1.02294e+06
456.51 1.02294e+06
456.585 1.02505e+06
456.66 1.02715e+06
456.735 1.02715e+06
456.81 1.02715e+06
456.885 1.02926e+06
456.96 1.03137e+06
457.035 1.03137e+06
457.11 1.03137e+06
457.185 1.03347e+06
457.26 1.03557e+06
457.335 1.03557e+06
457.41 1.03557e+06
457.485 1.0265e+06
457.56 1.01742e+06
457.635 1.01742e+06
457.71 1.01742e+06
457.785 1.00837e+06
457.86 999309
457.935 999309
458.01 999309
458.085 990259
458.16 981209
458.235 981209
458.31 981209
458.385 972173
458.46 963137
458.535 963137
458.61 963137
458.685 954112
458.76 945087
458.835 945087
458.91 945087
458.985 936075
459.06 927063
459.135 927063
459.21 927063
459.285 918061
459.36 909059
459.435 909059
459.51 909059
459.585 900070
459.66 891080
459.735 891080
459.81 891080
459.885 882103
459.96 873126
460.035 873126
460.11 873126
460.185 864161
460.26 855195
460.335 855195
460.41 855195
460.485 852314
460.56 849433
460.635 849433
460.71 849433
460.785 846557
460.86 843681
460.935 843681
461.01 843681
461.085 840808
461.16 837936
461.235 837936
461.31 837936
461.385 835068
461.46 832200
461.535 832200
461.61 832200
461.685 829334
461.76 826468
461.835 826468
461.91 826468
461.985 823606
462.06 820744
462.135 820744
462.21 820744
462.285 817887
462.36 815030
462.435 815030
462.51 815030
462.585 812176
462.66 809321
462.735 809321
462.81 809321
462.885 806470
462.96 803620
463.035 803620
463.11 803620
463.185 800775
463.26 797930
463.335 797930
463.41 797930
463.485 797486
463.56 797042
463.635 797042
463.71 797042
463.785 796601
463.86 796160
463.935 796160
464.01 796160
464.085 795717
464.16 795274
464.235 795274
464.31 795274
464.385 794832
464.46 794390
464.535 794390
464.61 794390
464.685 793949
464.76 793508
464.835 793508
464.91 793508
464.985 793068
465.06 792629
465.135 792629
465.21 792629
465.285 792189
465.36 791750
465.435 791750
465.51 791750
465.585 791310
465.66 790871
465.735 790871
465.81 790871
465.885 790431
465.96 789991
466.035 789991
466.11 789991
466.185 789554
466.26 789118
466.335 789118
466.41 789118
466.485 793692
466.56 798267
466.635 798267
466.71 798267
466.785 802838
466.86 807408
466.935 807408
467.01 807408
467.085 811971
467.16 816535
467.235 816535
467.31 816535
467.385 821093
467.46 825652
467.535 825652
467.61 825652
467.685 830202
467.76 834753
467.835 834753
467.91 834753
467.985 839300
468.06 843847
468.135 843847
468.21 843847
468.285 848387
468.36 852927
468.435 852927
468.51 852927
468.585 857463
468.66 861999
468.735 861999
468.81 861999
468.885 866528
468.96 871057
469.035 871057
469.11 871057
469.185 875578
469.26 880100
469.335 880100
469.41 880100
469.485 883343
469.56 886586
469.635 886586
469.71 886586
469.785 889824
469.86 893062
469.935 893062
470.01 893062
470.085 896297
470.16 899532
470.235 899532
470.31 899532
470.385 902763
470.46 905993
470.535 905993
470.61 905993
470.685 909219
470.76 912446
470.835 912446
470.91 912446
470.985 915668
471.06 918891
471.135 918891
471.21 918891
471.285 922109
471.36 925327
471.435 925327
471.51 925327
471.585 928541
471.66 931754
471.735 931754
471.81 931754
471.885 934965
471.96 938176
472.035 938176
472.11 938176
472.185 941381
472.26 944585
472.335 944585
472.41 944585
472.485 944847
472.56 945108
472.635 945108
472.71 945108
472.785 945369
472.86 945630
472.935 945630
473.01 945630
473.085 945890
473.16 946151
473.235 946151
473.31 946151
473.385 946410
473.46 946669
473.535 946669
473.61 946669
473.685 946928
473.76 947187
473.835 947187
473.91 947187
473.985 947444
474.06 947701
474.135 947701
474.21 947701
474.285 947962
474.36 948224
474.435 948224
474.51 948224
474.585 948479
474.66 948735
474.735 948735
474.81 948735
474.885 948994
474.96 949253
475.035 949253
475.11 949253
475.185 949511
475.26 949768
475.335 949768
475.41 949768
475.485 949102
475.56 948436
475.635 948436
475.71 948436
475.785 947767
475.86 947097
475.935 947097
476.01 947097
476.085 946433
476.16 945769
476.235 945769
476.31 945769
476.385 945105
476.46 944441
476.535 944441
476.61 944441
476.685 943776
476.76 943111
476.835 943111
476.91 943111
476.985 942448
477.06 941785
477.135 941785
477.21 941785
477.285 941122
477.36 940459
477.435 940459
477.51 940459
477.585 939798
477.66 939137
477.735 939137
477.81 939137
477.885 938475
477.96 937814
478.035 937814
478.11 937814
478.185 937154
478.26 936493
478.335 936493
478.41 936493
478.485 937144
478.56 937794
478.635 937794
478.71 937794
478.785 938445
478.86 939095
478.935 939095
479.01 939095
479.085 939743
479.16 940392
479.235 940392
479.31 940392
479.385 941040
479.46 941687
479.535 941687
479.61 941687
479.685 942333
479.76 942979
479.835 942979
479.91 942979
479.985 943627
480.06 944275
480.135 944275
480.21 944275
480.285 944920
480.36 945566
480.435 945566
480.51 945566
480.585 946209
480.66 946853
480.735 946853
480.81 946853
480.885 947498
480.96 948142
481.035 948142
481.11 948142
481.185 948785
481.26 949427
481.335 949427
481.41 949427
481.485 948140
481.56 946853
481.635 946853
481.71 946853
481.785 945569
481.86 944285
481.935 944285
482.01 944285
482.085 943000
482.16 941715
482.235 941715
482.31 941715
482.385 940433
482.46 939150
482.535 939150
482.61 939150
482.685 937870
482.76 936589
482.835 936589
482.91 936589
482.985 935311
483.06 934032
483.135 934032
483.21 934032
483.285 932754
483.36 931475
483.435 931475
483.51 931475
483.585 930201
483.66 928926
483.735 928926
483.81 928926
483.885 927650
483.96 926374
484.035 926374
484.11 926374
484.185 925101
484.26 923829
484.335 923829
484.41 923829
484.485 923078
484.56 922328
484.635 922328
484.71 922328
484.785 921577
484.86 920826
484.935 920826
485.01 920826
485.085 920076
485.16 919327
485.235 919327
485.31 919327
485.385 918577
485.46 917827
485.535 917827
485.61 917827
485.685 917078
485.76 916330
485.835 916330
485.91 916330
485.985 915583
486.06 914835
486.135 914835
486.21 914835
486.285 914089
486.36 913343
486.435 913343
486.51 913343
486.585 912597
486.66 911852
486.735 911852
486.81 911852
486.885 911106
486.96 910361
487.035 910361
487.11 910361
487.185 909618
487.26 908875
487.335 908875
487.41 908875
487.485 911744
487.56 914613
487.635 914613
487.71 914613
487.785 917475
487.86 920338
487.935 920338
488.01 920338
488.085 923198
488.16 926058
488.235 926058
488.31 926058
488.385 928915
488.46 931773
488.535 931773
488.61 931773
488.685 934625
488.76 937477
488.835 937477
488.91 937477
488.985 940327
489.06 943177
489.135 943177
489.21 943177
489.285 946023
489.36 948870
489.435 948870
489.51 948870
489.585 951711
489.66 954551
489.735 954551
489.81 954551
489.885 957392
489.96 960233
490.035 960233
490.11 960233
490.185 963068
490.26 965903
490.335 965903
490.41 965903
490.485 965826
490.56 965749
490.635 965749
490.71 965749
490.785 965669
490.86 965590
490.935 965590
491.01 965590
491.085 965513
491.16 965435
491.235 965435
491.31 965435
491.385 965359
491.46 965282
491.535 965282
491.61 965282
491.685 965202
491.76 965122
491.835 965122
491.91 965122
491.985 965046
492.06 964969
492.135 964969
492.21 964969
492.285 964891
492.36 964813
492.435 964813
492.51 964813
492.585 964735
492.66 964658
492.735 964658
492.81 964658
492.885 964579
492.96 964500
493.035 964500
493.11 964500
493.185 964423
493.26 964346
493.335 964346
493.41 964346
493.485 963878
493.56 963411
493.635 963411
493.71 963411
493.785 962943
493.86 962475
493.935 962475
494.01 962475
494.085 962006
494.16 961538
494.235 961538
494.31 961538
494.385 961071
494.46 960604
494.535 960604
494.61 960604
494.685 960138
494.76 959673
494.835 959673
494.91 959673
494.985 959207
495.06 958740
495.135 958740
495.21 958740
495.285 958275
495.36 957811
495.435 957811
495.51 957811
495.585 957345
495.66 956879
495.735 956879
495.81 956879
495.885 956416
495.96 955954
496.035 955954
496.11 955954
496.185 955490
496.26 955025
496.335 955025
496.41 955025
496.485 955485
496.56 955945
496.635 955945
496.71 955945
496.785 956404
496.86 956864
496.935 956864
497.01 956864
497.085 957323
497.16 957783
497.235 957783
497.31 957783
497.385 958242
497.46 958701
497.535 958701
497.61 958701
497.685 959159
497.76 959617
497.835 959617
497.91 959617
497.985 960074
498.06 960532
498.135 960532
498.21 960532
498.285 960989
498.36 961445
498.435 961445
498.51 961445
498.585 961903
498.66 962360
498.735 962360
498.81 962360
498.885 962816
498.96 963271
499.035 963271
499.11 963271
499.185 963727
499.26 964183
499.335 964183
499.41 964183
499.485 960466
499.56 956748
499.635 956748
499.71 956748
499.785 953033
499.86 949318
499.935 949318
500.01 949318
500.085 945609
500.16 941899
500.235 941899
500.31 941899
500.385 938195
500.46 934491
500.535 934491
500.61 934491
500.685 930789
500.76 927087
500.835 927087
500.91 927087
500.985 923392
501.06 919697
501.135 919697
501.21 919697
501.285 916005
501.36 912313
501.435 912313
501.51 912313
501.585 922302
501.66 932290
501.735 932290
501.81 932290
501.885 942264
501.96 952238
502.035 952238
502.11 952238
502.185 962202
502.26 972166
502.335 972166
502.41 972166
502.485 982119
502.56 992072
502.635 992072
502.71 992072
502.785 1.00201e+06
502.86 1.01195e+06
502.935 1.01195e+06
503.01 1.01195e+06
503.085 1.00962e+06
503.16 1.00729e+06
503.235 1.00729e+06
503.31 1.00729e+06
503.385 1.00497e+06
503.46 1.00265e+06
503.535 1.00265e+06
503.61 1.00265e+06
503.685 1.00033e+06
503.76 998007
503.835 998007
503.91 998007
503.985 995686
504.06 993365
504.135 993365
504.21 993365
504.285 991051
504.36 988737
504.435 988737
504.51 988737
504.585 986424
504.66 984111
504.735 984111
504.81 984111
504.885 981803
504.96 979495
505.035 979495
505.11 979495
505.185 977187
505.26 974879
505.335 974879
505.41 974879
505.485 972115
505.56 969351
505.635 969351
505.71 969351
505.785 966590
505.86 963829
505.935 963829
506.01 963829
506.085 961072
506.16 958314
506.235 958314
506.31 958314
506.385 955561
506.46 952808
506.535 952808
506.61 952808
506.685 950056
506.76 947304
506.835 947304
506.91 947304
506.985 944556
507.06 941808
507.135 941808
507.21 941808
507.285 939064
507.36 936321
507.435 936321
507.51 936321
507.585 933580
507.66 930839
507.735 930839
507.81 930839
507.885 928101
507.96 925363
508.035 925363
508.11 925363
508.185 922628
508.26 919894
508.335 919894
508.41 919894
508.485 918758
508.56 917622
508.635 917622
508.71 917622
508.785 916486
508.86 915350
508.935 915350
509.01 915350
509.085 914217
509.16 913084
509.235 913084
509.31 913084
509.385 911950
509.46 910817
509.535 910817
509.61 910817
509.685 909687
509.76 908558
509.835 908558
509.91 908558
509.985 907428
510.06 906298
510.135 906298
510.21 906298
510.285 905169
510.36 904040
510.435 904040
510.51 904040
510.585 902912
510.66 901784
510.735 901784
510.81 901784
510.885 900657
510.96 899530
511.035 899530
511.11 899530
511.185 898406
511.26 897282
511.335 897282
511.41 897282
511.485 894623
511.56 891964
511.635 891964
511.71 891964
511.785 889308
511.86 886652
511.935 886652
512.01 886652
512.085 883999
512.16 881346
512.235 881346
512.31 881346
512.385 878697
512.46 876047
512.535 876047
512.61 876047
512.685 873399
512.76 870751
512.835 870751
512.91 870751
512.985 868108
513.06 865465
513.135 865465
513.21 865465
513.285 862822
513.36 860180
513.435 860180
513.51 860180
513.585 857543
513.66 854905
513.735 854905
513.81 854905
513.885 852272
513.96 849638
514.035 849638
514.11 849638
514.185 847007
514.26 844376
514.335 844376
514.41 844376
514.485 843643
514.56 842910
514.635 842910
514.71 842910
514.785 842178
514.86 841445
514.935 841445
515.01 841445
515.085 840715
515.16 839985
515.235 839985
515.31 839985
515.385 839254
515.46 838524
515.535 838524
515.61 838524
515.685 837794
515.76 837064
515.835 837064
515.91 837064
515.985 836335
516.06 835607
516.135 835607
516.21 835607
516.285 834878
516.36 834150
516.435 834150
516.51 834150
516.585 833425
516.66 832699
516.735 832699
516.81 832699
516.885 831973
516.96 831246
517.035 831246
517.11 831246
517.185 830521
517.26 829796
517.335 829796
517.41 829796
517.485 831548
517.56 833300
517.635 833300
517.71 833300
517.785 835047
517.86 836794
517.935 836794
518.01 836794
518.085 838540
518.16 840287
518.235 840287
518.31 840287
518.385 842029
518.46 843772
518.535 843772
518.61 843772
518.685 845514
518.76 847257
518.835 847257
518.91 847257
518.985 848995
519.06 850734
519.135 850734
519.21 850734
519.285 852471
519.36 854208
519.435 854208
519.51 854208
519.585 855946
519.66 857684
519.735 857684
519.81 857684
519.885 859417
519.96 861150
520.035 861150
520.11 861150
520.185 862882
520.26 864614
520.335 864614
520.41 864614
520.485 863562
520.56 862510
520.635 862510
520.71 862510
520.785 861458
520.86 860405
520.935 860405
521.01 860405
521.085 859355
521.16 858306
521.235 858306
521.31 858306
521.385 857258
521.46 856210
521.535 856210
521.61 856210
521.685 855163
521.76 854116
521.835 854116
521.91 854116
521.985 853069
522.06 852022
522.135 852022
522.21 852022
522.285 850977
522.36 849933
522.435 849933
522.51 849933
522.585 848888
522.66 847843
522.735 847843
522.81 847843
522.885 846801
522.96 845760
523.035 845760
523.11 845760
523.185 844719
523.26 843678
523.335 843678
523.41 843678
523.485 844006
523.56 844335
523.635 844335
523.71 844335
523.785 844665
523.86 844996
523.935 844996
524.01 844996
524.085 845325
524.16 845655
524.235 845655
524.31 845655
524.385 845983
524.46 846312
524.535 846312
524.61 846312
524.685 846641
524.76 846971
524.835 846971
524.91 846971
524.985 847297
525.06 847624
525.135 847624
525.21 847624
525.285 847953
525.36 848282
525.435 848282
525.51 848282
525.585 848611
525.66 848940
525.735 848940
525.81 848940
525.885 849266
525.96 849592
526.035 849592
526.11 849592
526.185 849919
526.26 850246
526.335 850246
526.41 850246
526.485 849639
526.56 849031
526.635 849031
526.71 849031
526.785 848423
526.86 847815
526.935 847815
527.01 847815
527.085 847209
527.16 846603
527.235 846603
527.31 846603
527.385 845998
527.46 845393
527.535 845393
527.61 845393
527.685 844787
527.76 844181
527.835 844181
527.91 844181
527.985 843576
528.06 842970
528.135 842970
528.21 842970
528.285 842368
528.36 841766
528.435 841766
528.51 841766
528.585 841162
528.66 840558
528.735 840558
528.81 840558
528.885 839956
528.96 839353
529.035 839353
529.11 839353
529.185 838753
529.26 838153
529.335 838153
529.41 838153
529.485 835270
529.56 832386
529.635 832386
529.71 832386
529.785 829506
529.86 826625
529.935 826625
530.01 826625
530.085 823749
530.16 820873
530.235 820873
530.31 820873
530.385 817999
530.46 815124
530.535 815124
530.61 815124
530.685 812255
530.76 809387
530.835 809387
530.91 809387
530.985 806520
531.06 803653
531.135 803653
531.21 803653
531.285 800788
531.36 797923
531.435 797923
531.51 797923
531.585 795063
531.66 792203
531.735 792203
531.81 792203
531.885 789346
531.96 786489
532.035 786489
532.11 786489
532.185 783634
532.26 780778
532.335 780778
532.41 780778
532.485 781685
532.56 782591
532.635 782591
532.71 782591
532.785 783496
532.86 784400
532.935 784400
533.01 784400
533.085 785305
533.16 786210
533.235 786210
533.31 786210
533.385 787112
533.46 788013
533.535 788013
533.61 788013
533.685 788915
533.76 789817
533.835 789817
533.91 789817
533.985 790718
534.06 791618
534.135 791618
534.21 791618
534.285 792518
534.36 793418
534.435 793418
534.51 793418
534.585 794317
534.66 795215
534.735 795215
534.81 795215
534.885 796112
534.96 797010
535.035 797010
535.11 797010
535.185 797906
535.26 798803
535.335 798803
535.41 798803
535.485 799711
535.56 800619
535.635 800619
535.71 800619
535.785 801525
535.86 802432
535.935 802432
536.01 802432
536.085 803338
536.16 804245
536.235 804245
536.31 804245
536.385 805149
536.46 806054
536.535 806054
536.61 806054
536.685 806958
536.76 807862
536.835 807862
536.91 807862
536.985 808764
537.06 809665
537.135 809665
537.21 809665
537.285 810569
537.36 811473
537.435 811473
537.51 811473
537.585 812372
537.66 813271
537.735 813271
537.81 813271
537.885 814173
537.96 815075
538.035 815075
538.11 815075
538.185 815973
538.26 816871
538.335 816871
538.41 816871
538.485 817183
538.56 817494
538.635 817494
538.71 817494
538.785 817809
538.86 818124
538.935 818124
539.01 818124
539.085 818435
539.16 818745
539.235 818745
539.31 818745
539.385 819059
539.46 819372
539.535 819372
539.61 819372
539.685 819684
539.76 819995
539.835 819995
539.91 819995
539.985 820307
540.06 820619
540.135 820619
540.21 820619
540.285 820929
540.36 821239
540.435 821239
540.51 821239
540.585 821550
540.66 821861
540.735 821861
540.81 821861
540.885 822171
540.96 822481
541.035 822481
541.11 822481
541.185 822792
541.26 823103
541.335 823103
541.41 823103
541.485 818438
541.56 813772
541.635 813772
541.71 813772
541.785 809113
541.86 804455
541.935 804455
542.01 804455
542.085 799800
542.16 795145
542.235 795145
542.31 795145
542.385 790494
542.46 785843
542.535 785843
542.61 785843
542.685 781199
542.76 776555
542.835 776555
542.91 776555
542.985 771917
543.06 767280
543.135 767280
543.21 767280
543.285 762646
543.36 758012
543.435 758012
543.51 758012
543.585 753382
543.66 748753
543.735 748753
543.81 748753
543.885 744129
543.96 739506
544.035 739506
544.11 739506
544.185 734887
544.26 730268
544.335 730268
544.41 730268
544.485 731819
544.56 733370
544.635 733370
544.71 733370
544.785 734920
544.86 736470
544.935 736470
545.01 736470
545.085 738016
545.16 739563
545.235 739563
545.31 739563
545.385 741109
545.46 742655
545.535 742655
545.61 742655
545.685 744200
545.76 745745
545.835 745745
545.91 745745
545.985 747288
546.06 748830
546.135 748830
546.21 748830
546.285 750372
546.36 751913
546.435 751913
546.51 751913
546.585 753452
546.66 754991
546.735 754991
546.81 754991
546.885 756529
546.96 758067
547.035 758067
547.11 758067
547.185 759602
547.26 761137
547.335 761137
547.41 761137
547.485 759955
547.56 758772
547.635 758772
547.71 758772
547.785 757589
547.86 756407
547.935 756407
548.01 756407
548.085 755224
548.16 754042
548.235 754042
548.31 754042
548.385 752862
548.46 751682
548.535 751682
548.61 751682
548.685 750502
548.76 749322
548.835 749322
548.91 749322
548.985 748144
549.06 746965
549.135 746965
549.21 746965
549.285 745790
549.36 744615
549.435 744615
549.51 744615
549.585 743440
549.66 742265
549.735 742265
549.81 742265
549.885 741091
549.96 739916
550.035 739916
550.11 739916
550.185 738743
550.26 737569
550.335 737569
550.41 737569
550.485 734006
550.56 730443
550.635 730443
550.71 730443
550.785 726883
550.86 723322
550.935 723322
551.01 723322
551.085 719765
551.16 716208
551.235 716208
551.31 716208
551.385 712655
551.46 709101
551.535 709101
551.61 709101
551.685 705553
551.76 702004
551.835 702004
551.91 702004
551.985 698460
552.06 694916
552.135 694916
552.21 694916
552.285 691374
552.36 687833
552.435 687833
552.51 687833
552.585 684296
552.66 680760
552.735 680760
552.81 680760
552.885 677226
552.96 673692
553.035 673692
553.11 673692
553.185 670162
553.26 666631
553.335 666631
553.41 666631
553.485 667264
553.56 667898
553.635 667898
553.71 667898
553.785 668531
553.86 669165
553.935 669165
554.01 669165
554.085 669798
554.16 670432
554.235 670432
554.31 670432
554.385 671063
554.46 671695
554.535 671695
554.61 671695
554.685 672325
554.76 672955
554.835 672955
554.91 672955
554.985 673586
555.06 674217
555.135 674217
555.21 674217
555.285 674847
555.36 675477
555.435 675477
555.51 675477
555.585 676106
555.66 676734
555.735 676734
555.81 676734
555.885 677363
555.96 677992
556.035 677992
556.11 677992
556.185 678620
556.26 679247
556.335 679247
556.41 679247
556.485 679710
556.56 680173
556.635 680173
556.71 680173
556.785 680638
556.86 681102
556.935 681102
557.01 681102
557.085 681567
557.16 682032
557.235 682032
557.31 682032
557.385 682496
557.46 682960
557.535 682960
557.61 682960
557.685 683422
557.76 683885
557.835 683885
557.91 683885
557.985 684346
558.06 684807
558.135 684807
558.21 684807
558.285 685270
558.36 685733
558.435 685733
558.51 685733
558.585 686194
558.66 686654
558.735 686654
558.81 686654
558.885 687114
558.96 687574
559.035 687574
559.11 687574
559.185 688034
559.26 688495
559.335 688495
559.41 688495
559.485 689844
559.56 691192
559.635 691192
559.71 691192
559.785 692538
559.86 693883
559.935 693883
560.01 693883
560.085 695229
560.16 696574
560.235 696574
560.31 696574
560.385 697917
560.46 699260
560.535 699260
560.61 699260
560.685 700600
560.76 701940
560.835 701940
560.91 701940
560.985 703281
561.06 704621
561.135 704621
561.21 704621
561.285 705961
561.36 707301
561.435 707301
561.51 707301
561.585 708637
561.66 709972
561.735 709972
561.81 709972
561.885 711310
561.96 712647
562.035 712647
562.11 712647
562.185 713981
562.26 715315
562.335 715315
562.41 715315
562.485 711236
562.56 707157
562.635 707157
562.71 707157
562.785 703084
562.86 699011
562.935 699011
563.01 699011
563.085 694940
563.16 690869
563.235 690869
563.31 690869
563.385 686804
563.46 682738
563.535 682738
563.61 682738
563.685 678677
563.76 674616
563.835 674616
563.91 674616
563.985 670560
564.06 666503
564.135 666503
564.21 666503
564.285 662451
564.36 658398
564.435 658398
564.51 658398
564.585 654350
564.66 650301
564.735 650301
564.81 650301
564.885 646257
564.96 642213
565.035 642213
565.11 642213
565.185 638173
565.26 634134
565.335 634134
565.41 634134
565.485 631664
565.56 629195
565.635 629195
565.71 629195
565.785 626729
565.86 624263
565.935 624263
566.01 624263
566.085 621800
566.16 619336
566.235 619336
566.31 619336
566.385 616874
566.46 614413
566.535 614413
566.61 614413
566.685 611954
566.76 609495
566.835 609495
566.91 609495
566.985 607040
567.06 604584
567.135 604584
567.21 604584
567.285 602130
567.36 599676
567.435 599676
567.51 599676
567.585 597225
567.66 594774
567.735 594774
567.81 594774
567.885 592325
567.96 589875
568.035 589875
568.11 589875
568.185 587430
568.26 584984
568.335 584984
568.41 584984
568.485 587819
568.56 590654
568.635 590654
568.71 590654
568.785 593485
568.86 596316
568.935 596316
569.01 596316
569.085 599144
569.16 601971
569.235 601971
569.31 601971
569.385 604797
569.46 607624
569.535 607624
569.61 607624
569.685 610446
569.76 613268
569.835 613268
569.91 613268
569.985 616086
570.06 618905
570.135 618905
570.21 618905
570.285 621720
570.36 624536
570.435 624536
570.51 624536
570.585 627351
570.66 630166
570.735 630166
570.81 630166
570.885 632976
570.96 635786
571.035 635786
571.11 635786
571.185 638593
571.26 641401
571.335 641401
571.41 641401
571.485 639257
571.56 637114
571.635 637114
571.71 637114
571.785 634976
571.86 632837
571.935 632837
572.01 632837
572.085 630699
572.16 628562
572.235 628562
572.31 628562
572.385 626425
572.46 624288
572.535 624288
572.61 624288
572.685 622156
572.76 620025
572.835 620025
572.91 620025
572.985 617892
573.06 615759
573.135 615759
573.21 615759
573.285 613631
573.36 611504
573.435 611504
573.51 611504
573.585 609377
573.66 607251
573.735 607251
573.81 607251
573.885 605127
573.96 603002
574.035 603002
574.11 603002
574.185 600880
574.26 598757
574.335 598757
574.41 598757
574.485 597071
574.56 595385
574.635 595385
574.71 595385
574.785 593700
574.86 592015
574.935 592015
575.01 592015
575.085 590331
575.16 588648
575.235 588648
575.31 588648
575.385 586966
575.46 585284
575.535 585284
575.61 585284
575.685 583606
575.76 581927
575.835 581927
575.91 581927
575.985 580249
576.06 578571
576.135 578571
576.21 578571
576.285 576895
576.36 575219
576.435 575219
576.51 575219
576.585 573545
576.66 571871
576.735 571871
576.81 571871
576.885 570199
576.96 568527
577.035 568527
577.11 568527
577.185 566856
577.26 565185
577.335 565185
577.41 565185
577.485 567234
577.56 569283
577.635 569283
577.71 569283
577.785 571332
577.86 573380
577.935 573380
578.01 573380
578.085 575425
578.16 577469
578.235 577469
578.31 577469
578.385 579513
578.46 581557
578.535 581557
578.61 581557
578.685 583598
578.76 585640
578.835 585640
578.91 585640
578.985 587678
579.06 589717
579.135 589717
579.21 589717
579.285 591755
579.36 593793
579.435 593793
579.51 593793
579.585 595828
579.66 597863
579.735 597863
579.81 597863
579.885 599895
579.96 601927
580.035 601927
580.11 601927
580.185 603958
580.26 605989
580.335 605989
580.41 605989
580.485 606797
580.56 607604
580.635 607604
580.71 607604
580.785 608412
580.86 609220
580.935 609220
581.01 609220
581.085 610026
581.16 610832
581.235 610832
581.31 610832
581.385 611637
581.46 612442
581.535 612442
581.61 612442
581.685 613246
581.76 614050
581.835 614050
581.91 614050
581.985 614854
582.06 615659
582.135 615659
582.21 615659
582.285 616461
582.36 617263
582.435 617263
582.51 617263
582.585 618065
582.66 618867
582.735 618867
582.81 618867
582.885 619668
582.96 620469
583.035 620469
583.11 620469
583.185 621270
583.26 622071
583.335 622071
583.41 622071
583.485 618607
583.56 615143
583.635 615143
583.71 615143
583.785 611682
583.86 608220
583.935 608220
584.01 608220
584.085 604761
584.16 601302
584.235 601302
584.31 601302
584.385 597849
584.46 594397
584.535 594397
584.61 594397
584.685 590946
584.76 587494
584.835 587494
584.91 587494
584.985 584047
585.06 580601
585.135 580601
585.21 580601
585.285 577157
585.36 573712
585.435 573712
585.51 573712
585.585 570273
585.66 566834
585.735 566834
585.81 566834
585.885 563397
585.96 559960
586.035 559960
586.11 559960
586.185 556527
586.26 553094
586.335 553094
586.41 553094
586.485 555226
586.56 557359
586.635 557359
586.71 557359
586.785 559488
586.86 561617
586.935 561617
587.01 561617
587.085 563745
587.16 565874
587.235 565874
587.31 565874
587.385 568000
587.46 570125
587.535 570125
587.61 570125
587.685 572248
587.76 574371
587.835 574371
587.91 574371
587.985 576494
588.06 578617
588.135 578617
588.21 578617
588.285 580735
588.36 582853
588.435 582853
588.51 582853
588.585 584970
588.66 587088
588.735 587088
588.81 587088
588.885 589203
588.96 591317
589.035 591317
589.11 591317
589.185 593431
589.26 595544
589.335 595544
589.41 595544
589.485 597655
589.56 599765
589.635 599765
589.71 599765
589.785 601873
589.86 603980
589.935 603980
590.01 603980
590.085 605491
590.16 607001
590.235 607001
590.31 607001
590.385 608510
590.46 610019
590.535 610019
590.61 610019
590.685 611526
590.76 613033
590.835 613033
590.91 613033
590.985 614538
591.06 616042
591.135 616042
591.21 616042
591.285 617546
591.36 619049
591.435 619049
591.51 619049
591.585 620552
591.66 622055
591.735 622055
591.81 622055
591.885 623556
591.96 625057
592.035 625057
592.11 625057
592.185 626556
592.26 628055
592.335 628055
592.41 628055
592.485 629552
592.56 631049
592.635 631049
592.71 631049
592.785 628060
592.86 625071
592.935 625071
593.01 625071
593.085 622083
593.16 619095
593.235 619095
593.31 619095
593.385 616111
593.46 613128
593.535 613128
593.61 613128
593.685 610147
593.76 607167
593.835 607167
593.91 607167
593.985 604189
594.06 601211
594.135 601211
594.21 601211
594.285 598234
594.36 595258
594.435 595258
594.51 595258
594.585 592286
594.66 589315
594.735 589315
594.81 589315
594.885 586346
594.96 583377
595.035 583377
595.11 583377
595.185 582916
595.26 582456
595.335 582456
595.41 582456
595.485 581994
595.56 581532
595.635 581532
595.71 581532
595.785 581071
595.86 580611
595.935 580611
596.01 580611
596.085 580151
596.16 579691
596.235 579691
596.31 579691
596.385 579232
596.46 578772
596.535 578772
596.61 578772
596.685 578314
596.76 577856
596.835 577856
596.91 577856
596.985 577396
597.06 576937
597.135 576937
597.21 576937
597.285 576479
597.36 576020
597.435 576020
597.51 576020
597.585 575563
597.66 575105
597.735 575105
597.81 575105
597.885 574648
597.96 574191
598.035 574191
598.11 574191
598.185 573735
598.26 573279
598.335 573279
598.41 573279
598.485 574328
598.56 575376
598.635 575376
598.71 575376
598.785 576424
598.86 577471
598.935 577471
599.01 577471
599.085 578520
599.16 579568
599.235 579568
599.31 579568
599.385 580614
599.46 581660
599.535 581660
599.61 581660
599.685 582705
599.76 583750
599.835 583750
599.91 583750
599.985 584794
600.06 585839
600.135 585839
600.21 585839
600.285 586882
600.36 587926
600.435 587926
600.51 587926
600.585 588966
600.66 590007
600.735 590007
600.81 590007
600.885 591050
600.96 592093
601.035 592093
601.11 592093
601.185 593132
601.26 594172
601.335 594172
601.41 594172
601.485 593845
601.56 593518
601.635 593518
601.71 593518
601.785 593193
601.86 592867
601.935 592867
602.01 592867
602.085 592541
602.16 592215
602.235 592215
602.31 592215
602.385 591891
602.46 591566
602.535 591566
602.61 591566
602.685 591240
602.76 590914
602.835 590914
602.91 590914
602.985 590589
603.06 590265
603.135 590265
603.21 590265
603.285 589941
603.36 589617
603.435 589617
603.51 589617
603.585 589293
603.66 588968
603.735 588968
603.81 588968
603.885 588645
603.96 588322
604.035 588322
604.11 588322
604.185 587998
604.26 587673
604.335 587673
604.41 587673
604.485 588483
604.56 589292
604.635 589292
604.71 589292
604.785 590101
604.86 590909
604.935 590909
605.01 590909
605.085 591718
605.16 592526
605.235 592526
605.31 592526
605.385 593334
605.46 594141
605.535 594141
605.61 594141
605.685 594947
605.76 595752
605.835 595752
605.91 595752
605.985 596558
606.06 597363
606.135 597363
606.21 597363
606.285 598169
606.36 598974
606.435 598974
606.51 598974
606.585 599778
606.66 600581
606.735 600581
606.81 600581
606.885 601385
606.96 602188
607.035 602188
607.11 602188
607.185 602990
607.26 603792
607.335 603792
607.41 603792
607.485 600926
607.56 598060
607.635 598060
607.71 598060
607.785 595196
607.86 592333
607.935 592333
608.01 592333
608.085 589470
608.16 586608
608.235 586608
608.31 586608
608.385 583750
608.46 580893
608.535 580893
608.61 580893
608.685 578037
608.76 575181
608.835 575181
608.91 575181
608.985 572328
609.06 569476
609.135 569476
609.21 569476
609.285 566626
609.36 563777
609.435 563777
609.51 563777
609.585 560929
609.66 558081
609.735 558081
609.81 558081
609.885 555237
609.96 552393
610.035 552393
610.11 552393
610.185 549551
610.26 546710
610.335 546710
610.41 546710
610.485 547239
610.56 547768
610.635 547768
610.71 547768
610.785 548296
610.86 548825
610.935 548825
611.01 548825
611.085 549352
611.16 549880
611.235 549880
611.31 549880
611.385 550407
611.46 550935
611.535 550935
611.61 550935
611.685 551462
611.76 551988
611.835 551988
611.91 551988
611.985 552515
612.06 553041
612.135 553041
612.21 553041
612.285 553566
612.36 554091
612.435 554091
612.51 554091
612.585 554616
612.66 555140
612.735 555140
612.81 555140
612.885 555665
612.96 556191
613.035 556191
613.11 556191
613.185 556715
613.26 557240
613.335 557240
613.41 557240
613.485 555886
613.56 554531
613.635 554531
613.71 554531
613.785 553179
613.86 551826
613.935 551826
614.01 551826
614.085 550474
614.16 549123
614.235 549123
614.31 549123
614.385 547773
614.46 546423
614.535 546423
614.61 546423
614.685 545075
614.76 543726
614.835 543726
614.91 543726
614.985 542379
615.06 541032
615.135 541032
615.21 541032
615.285 539686
615.36 538340
615.435 538340
615.51 538340
615.585 536995
615.66 535651
615.735 535651
615.81 535651
615.885 534307
615.96 532963
616.035 532963
616.11 532963
616.185 531620
616.26 530278
616.335 530278
616.41 530278
616.485 530651
616.56 531025
616.635 531025
616.71 531025
616.785 531397
616.86 531768
616.935 531768
617.01 531768
617.085 532141
617.16 532513
617.235 532513
617.31 532513
617.385 532883
617.46 533254
617.535 533254
617.61 533254
617.685 533625
617.76 533997
617.835 533997
617.91 533997
617.985 534368
618.06 534739
618.135 534739
618.21 534739
618.285 535109
618.36 535479
618.435 535479
618.51 535479
618.585 535849
618.66 536218
618.735 536218
618.81 536218
618.885 536589
618.96 536960
619.035 536960
619.11 536960
619.185 537329
619.26 537698
619.335 537698
619.41 537698
619.485 539906
619.56 542114
619.635 542114
619.71 542114
619.785 544322
619.86 546529
619.935 546529
620.01 546529
620.085 548733
620.16 550937
620.235 550937
620.31 550937
620.385 553140
620.46 555343
620.535 555343
620.61 555343
620.685 557542
620.76 559741
620.835 559741
620.91 559741
620.985 561939
621.06 564138
621.135 564138
621.21 564138
621.285 566333
621.36 568529
621.435 568529
621.51 568529
621.585 570724
621.66 572919
621.735 572919
621.81 572919
621.885 575111
621.96 577302
622.035 577302
622.11 577302
622.185 569397
622.26 561492
622.335 561492
622.41 561492
622.485 553595
622.56 545697
622.635 545697
622.71 545697
622.785 537807
622.86 529916
622.935 529916
623.01 529916
623.085 522033
623.16 514151
623.235 514151
623.31 514151
623.385 516110
623.46 518068
623.535 518068
623.61 518068
623.685 520026
623.76 521984
623.835 521984
623.91 521984
623.985 523939
624.06 525894
624.135 525894
624.21 525894
624.285 527848
624.36 529803
624.435 529803
624.51 529803
624.585 531754
624.66 533704
624.735 533704
624.81 533704
624.885 535654
624.96 537603
625.035 537603
625.11 537603
625.185 539551
625.26 541500
625.335 541500
625.41 541500
625.485 539798
625.56 538097
625.635 538097
625.71 538097
625.785 536397
625.86 534698
625.935 534698
626.01 534698
626.085 533001
626.16 531304
626.235 531304
626.31 531304
626.385 529607
626.46 527910
626.535 527910
626.61 527910
626.685 526216
626.76 524522
626.835 524522
626.91 524522
626.985 522829
627.06 521135
627.135 521135
627.21 521135
627.285 519444
627.36 517753
627.435 517753
627.51 517753
627.585 516064
627.66 514374
627.735 514374
627.81 514374
627.885 512686
627.96 510998
628.035 510998
628.11 510998
628.185 509312
628.26 507625
628.335 507625
628.41 507625
628.485 508644
628.56 509663
628.635 509663
628.71 509663
628.785 510683
628.86 511702
628.935 511702
629.01 511702
629.085 512719
629.16 513736
629.235 513736
629.31 513736
629.385 514752
629.46 515769
629.535 515769
629.61 515769
629.685 516785
629.76 517800
629.835 517800
629.91 517800
629.985 518815
630.06 519830
630.135 519830
630.21 519830
630.285 520843
630.36 521855
630.435 521855
630.51 521855
630.585 522868
630.66 523881
630.735 523881
630.81 523881
630.885 524893
630.96 525905
631.035 525905
631.11 525905
631.185 526916
631.26 527927
631.335 527927
631.41 527927
631.485 527995
631.56 528063
631.635 528063
631.71 528063
631.785 528132
631.86 528200
631.935 528200
632.01 528200
632.085 528269
632.16 528338
632.235 528338