lam(nm) Flux (10^-20 J/s/m2/um)
324.735 1.74343e+06
324.81 1.74343e+06
324.885 1.7303e+06
324.96 1.71717e+06
325.035 1.71717e+06
325.11 1.71717e+06
325.185 1.70407e+06
325.26 1.69097e+06
325.335 1.69097e+06
325.41 1.69097e+06
325.485 1.70688e+06
325.56 1.72278e+06
325.635 1.72278e+06
325.71 1.72278e+06
325.785 1.73866e+06
325.86 1.75454e+06
325.935 1.75454e+06
326.01 1.75454e+06
326.085 1.77039e+06
326.16 1.78624e+06
326.235 1.78624e+06
326.31 1.78624e+06
326.385 1.80206e+06
326.46 1.81788e+06
326.535 1.81788e+06
326.61 1.81788e+06
326.685 1.83367e+06
326.76 1.84946e+06
326.835 1.84946e+06
326.91 1.84946e+06
326.985 1.86522e+06
327.06 1.88098e+06
327.135 1.88098e+06
327.21 1.88098e+06
327.285 1.89672e+06
327.36 1.91246e+06
327.435 1.91246e+06
327.51 1.91246e+06
327.585 1.92816e+06
327.66 1.94386e+06
327.735 1.94386e+06
327.81 1.94386e+06
327.885 1.95954e+06
327.96 1.97521e+06
328.035 1.97521e+06
328.11 1.97521e+06
328.185 1.99086e+06
328.26 2.00651e+06
328.335 2.00651e+06
328.41 2.00651e+06
328.485 1.99838e+06
328.56 1.99025e+06
328.635 1.99025e+06
328.71 1.99025e+06
328.785 1.98214e+06
328.86 1.97403e+06
328.935 1.97403e+06
329.01 1.97403e+06
329.085 1.96593e+06
329.16 1.95783e+06
329.235 1.95783e+06
329.31 1.95783e+06
329.385 1.94975e+06
329.46 1.94166e+06
329.535 1.94166e+06
329.61 1.94166e+06
329.685 1.93359e+06
329.76 1.92552e+06
329.835 1.92552e+06
329.91 1.92552e+06
329.985 1.91747e+06
330.06 1.90942e+06
330.135 1.90942e+06
330.21 1.90942e+06
330.285 1.90138e+06
330.36 1.89334e+06
330.435 1.89334e+06
330.51 1.89334e+06
330.585 1.88531e+06
330.66 1.87728e+06
330.735 1.87728e+06
330.81 1.87728e+06
330.885 1.86927e+06
330.96 1.86127e+06
331.035 1.86127e+06
331.11 1.86127e+06
331.185 1.85327e+06
331.26 1.84527e+06
331.335 1.84527e+06
331.41 1.84527e+06
331.485 1.84307e+06
331.56 1.84086e+06
331.635 1.84086e+06
331.71 1.84086e+06
331.785 1.83865e+06
331.86 1.83644e+06
331.935 1.83644e+06
332.01 1.83644e+06
332.085 1.83425e+06
332.16 1.83205e+06
332.235 1.83205e+06
332.31 1.83205e+06
332.385 1.82985e+06
332.46 1.82765e+06
332.535 1.82765e+06
332.61 1.82765e+06
332.685 1.82546e+06
332.76 1.82326e+06
332.835 1.82326e+06
332.91 1.82326e+06
332.985 1.82107e+06
333.06 1.81888e+06
333.135 1.81888e+06
333.21 1.81888e+06
333.285 1.8167e+06
333.36 1.81451e+06
333.435 1.81451e+06
333.51 1.81451e+06
333.585 1.81234e+06
333.66 1.81016e+06
333.735 1.81016e+06
333.81 1.81016e+06
333.885 1.80798e+06
333.96 1.8058e+06
334.035 1.8058e+06
334.11 1.8058e+06
334.185 1.80363e+06
334.26 1.80146e+06
334.335 1.80146e+06
334.41 1.80146e+06
334.485 1.78408e+06
334.56 1.76671e+06
334.635 1.76671e+06
334.71 1.76671e+06
334.785 1.74936e+06
334.86 1.73202e+06
334.935 1.73202e+06
335.01 1.73202e+06
335.085 1.71471e+06
335.16 1.69739e+06
335.235 1.69739e+06
335.31 1.69739e+06
335.385 1.68011e+06
335.46 1.66282e+06
335.535 1.66282e+06
335.61 1.66282e+06
335.685 1.64557e+06
335.76 1.62832e+06
335.835 1.62832e+06
335.91 1.62832e+06
335.985 1.6111e+06
336.06 1.59388e+06
336.135 1.59388e+06
336.21 1.59388e+06
336.285 1.57669e+06
336.36 1.5595e+06
336.435 1.5595e+06
336.51 1.5595e+06
336.585 1.54234e+06
336.66 1.52518e+06
336.735 1.52518e+06
336.81 1.52518e+06
336.885 1.50805e+06
336.96 1.49092e+06
337.035 1.49092e+06
337.11 1.49092e+06
337.185 1.47382e+06
337.26 1.45673e+06
337.335 1.45673e+06
337.41 1.45673e+06
337.485 1.47528e+06
337.56 1.49383e+06
337.635 1.49383e+06
337.71 1.49383e+06
337.785 1.51235e+06
337.86 1.53088e+06
337.935 1.53088e+06
338.01 1.53088e+06
338.085 1.54937e+06
338.16 1.56786e+06
338.235 1.56786e+06
338.31 1.56786e+06
338.385 1.58631e+06
338.46 1.60477e+06
338.535 1.60477e+06
338.61 1.60477e+06
338.685 1.62319e+06
338.76 1.64161e+06
338.835 1.64161e+06
338.91 1.64161e+06
338.985 1.66e+06
339.06 1.67839e+06
339.135 1.67839e+06
339.21 1.67839e+06
339.285 1.69675e+06
339.36 1.71511e+06
339.435 1.71511e+06
339.51 1.71511e+06
339.585 1.73344e+06
339.66 1.75177e+06
339.735 1.75177e+06
339.81 1.75177e+06
339.885 1.77006e+06
339.96 1.78835e+06
340.035 1.78835e+06
340.11 1.78835e+06
340.185 1.80661e+06
340.26 1.82487e+06
340.335 1.82487e+06
340.41 1.82487e+06
340.485 1.81745e+06
340.56 1.81004e+06
340.635 1.81004e+06
340.71 1.81004e+06
340.785 1.80263e+06
340.86 1.79522e+06
340.935 1.79522e+06
341.01 1.79522e+06
341.085 1.78783e+06
341.16 1.78044e+06
341.235 1.78044e+06
341.31 1.78044e+06
341.385 1.77306e+06
341.46 1.76568e+06
341.535 1.76568e+06
341.61 1.76568e+06
341.685 1.75831e+06
341.76 1.75095e+06
341.835 1.75095e+06
341.91 1.75095e+06
341.985 1.7436e+06
342.06 1.73624e+06
342.135 1.73624e+06
342.21 1.73624e+06
342.285 1.7289e+06
342.36 1.72155e+06
342.435 1.72155e+06
342.51 1.72155e+06
342.585 1.71423e+06
342.66 1.7069e+06
342.735 1.7069e+06
342.81 1.7069e+06
342.885 1.69959e+06
342.96 1.69227e+06
343.035 1.69227e+06
343.11 1.69227e+06
343.185 1.68497e+06
343.26 1.67767e+06
343.335 1.67767e+06
343.41 1.67767e+06
343.485 1.67823e+06
343.56 1.67879e+06
343.635 1.67879e+06
343.71 1.67879e+06
343.785 1.67935e+06
343.86 1.67991e+06
343.935 1.67991e+06
344.01 1.67991e+06
344.085 1.68047e+06
344.16 1.68104e+06
344.235 1.68104e+06
344.31 1.68104e+06
344.385 1.6816e+06
344.46 1.68215e+06
344.535 1.68215e+06
344.61 1.68215e+06
344.685 1.68271e+06
344.76 1.68327e+06
344.835 1.68327e+06
344.91 1.68327e+06
344.985 1.68382e+06
345.06 1.68438e+06
345.135 1.68438e+06
345.21 1.68438e+06
345.285 1.68494e+06
345.36 1.6855e+06
345.435 1.6855e+06
345.51 1.6855e+06
345.585 1.68605e+06
345.66 1.6866e+06
345.735 1.6866e+06
345.81 1.6866e+06
345.885 1.68716e+06
345.96 1.68772e+06
346.035 1.68772e+06
346.11 1.68772e+06
346.185 1.68827e+06
346.26 1.68882e+06
346.335 1.68882e+06
346.41 1.68882e+06
346.485 1.68653e+06
346.56 1.68424e+06
346.635 1.68424e+06
346.71 1.68424e+06
346.785 1.68195e+06
346.86 1.67967e+06
346.935 1.67967e+06
347.01 1.67967e+06
347.085 1.67739e+06
347.16 1.67511e+06
347.235 1.67511e+06
347.31 1.67511e+06
347.385 1.67283e+06
347.46 1.67055e+06
347.535 1.67055e+06
347.61 1.67055e+06
347.685 1.66827e+06
347.76 1.666e+06
347.835 1.666e+06
347.91 1.666e+06
347.985 1.66373e+06
348.06 1.66146e+06
348.135 1.66146e+06
348.21 1.66146e+06
348.285 1.65919e+06
348.36 1.65692e+06
348.435 1.65692e+06
348.51 1.65692e+06
348.585 1.65466e+06
348.66 1.6524e+06
348.735 1.6524e+06
348.81 1.6524e+06
348.885 1.65014e+06
348.96 1.64788e+06
349.035 1.64788e+06
349.11 1.64788e+06
349.185 1.64563e+06
349.26 1.64337e+06
349.335 1.64337e+06
349.41 1.64337e+06
349.485 1.60771e+06
349.56 1.57205e+06
349.635 1.57205e+06
349.71 1.57205e+06
349.785 1.53645e+06
349.86 1.50084e+06
349.935 1.50084e+06
350.01 1.50084e+06
350.085 1.4653e+06
350.16 1.42976e+06
350.235 1.42976e+06
350.31 1.42976e+06
350.385 1.39428e+06
350.46 1.3588e+06
350.535 1.3588e+06
350.61 1.3588e+06
350.685 1.32338e+06
350.76 1.28797e+06
350.835 1.28797e+06
350.91 1.28797e+06
350.985 1.25261e+06
351.06 1.21725e+06
351.135 1.21725e+06
351.21 1.21725e+06
351.285 1.18195e+06
351.36 1.14665e+06
351.435 1.14665e+06
351.51 1.14665e+06
351.585 1.11141e+06
351.66 1.07618e+06
351.735 1.07618e+06
351.81 1.07618e+06
351.885 1.041e+06
351.96 1.00582e+06
352.035 1.00582e+06
352.11 1.00582e+06
352.185 970700
352.26 935582
352.335 935582
352.41 935582
352.485 966082
352.56 996582
352.635 996582
352.71 996582
352.785 1.02703e+06
352.86 1.05748e+06
352.935 1.05748e+06
353.01 1.05748e+06
353.085 1.08787e+06
353.16 1.11827e+06
353.235 1.11827e+06
353.31 1.11827e+06
353.385 1.14861e+06
353.46 1.17896e+06
353.535 1.17896e+06
353.61 1.17896e+06
353.685 1.20925e+06
353.76 1.23954e+06
353.835 1.23954e+06
353.91 1.23954e+06
353.985 1.26979e+06
354.06 1.30003e+06
354.135 1.30003e+06
354.21 1.30003e+06
354.285 1.33022e+06
354.36 1.36041e+06
354.435 1.36041e+06
354.51 1.36041e+06
354.585 1.39055e+06
354.66 1.42069e+06
354.735 1.42069e+06
354.81 1.42069e+06
354.885 1.45078e+06
354.96 1.48087e+06
355.035 1.48087e+06
355.11 1.48087e+06
355.185 1.51091e+06
355.26 1.54095e+06
355.335 1.54095e+06
355.41 1.54095e+06
355.485 1.53524e+06
355.56 1.52954e+06
355.635 1.52954e+06
355.71 1.52954e+06
355.785 1.52385e+06
355.86 1.51816e+06
355.935 1.51816e+06
356.01 1.51816e+06
356.085 1.51248e+06
356.16 1.5068e+06
356.235 1.5068e+06
356.31 1.5068e+06
356.385 1.50112e+06
356.46 1.49545e+06
356.535 1.49545e+06
356.61 1.49545e+06
356.685 1.48979e+06
356.76 1.48412e+06
356.835 1.48412e+06
356.91 1.48412e+06
356.985 1.47847e+06
357.06 1.47282e+06
357.135 1.47282e+06
357.21 1.47282e+06
357.285 1.46718e+06
357.36 1.46154e+06
357.435 1.46154e+06
357.51 1.46154e+06
357.585 1.4559e+06
357.66 1.45026e+06
357.735 1.45026e+06
357.81 1.45026e+06
357.885 1.44464e+06
357.96 1.43902e+06
358.035 1.43902e+06
358.11 1.43902e+06
358.185 1.4334e+06
358.26 1.42779e+06
358.335 1.42779e+06
358.41 1.42779e+06
358.485 1.41194e+06
358.56 1.39609e+06
358.635 1.39609e+06
358.71 1.39609e+06
358.785 1.38027e+06
358.86 1.36445e+06
358.935 1.36445e+06
359.01 1.36445e+06
359.085 1.34866e+06
359.16 1.33287e+06
359.235 1.33287e+06
359.31 1.33287e+06
359.385 1.3171e+06
359.46 1.30133e+06
359.535 1.30133e+06
359.61 1.30133e+06
359.685 1.28559e+06
359.76 1.26985e+06
359.835 1.26985e+06
359.91 1.26985e+06
359.985 1.25414e+06
360.06 1.23842e+06
360.135 1.23842e+06
360.21 1.23842e+06
360.285 1.22273e+06
360.36 1.20704e+06
360.435 1.20704e+06
360.51 1.20704e+06
360.585 1.19138e+06
360.66 1.17572e+06
360.735 1.17572e+06
360.81 1.17572e+06
360.885 1.16008e+06
360.96 1.14445e+06
361.035 1.14445e+06
361.11 1.14445e+06
361.185 1.12883e+06
361.26 1.11322e+06
361.335 1.11322e+06
361.41 1.11322e+06
361.485 1.10194e+06
361.56 1.09065e+06
361.635 1.09065e+06
361.71 1.09065e+06
361.785 1.07938e+06
361.86 1.06812e+06
361.935 1.06812e+06
362.01 1.06812e+06
362.085 1.05687e+06
362.16 1.04562e+06
362.235 1.04562e+06
362.31 1.04562e+06
362.385 1.03439e+06
362.46 1.02316e+06
362.535 1.02316e+06
362.61 1.02316e+06
362.685 1.01194e+06
362.76 1.00073e+06
362.835 1.00073e+06
362.91 1.00073e+06
362.985 989537
363.06 978344
363.135 978344
363.21 978344
363.285 967171
363.36 955998
363.435 955998
363.51 955998
363.585 944842
363.66 933686
363.735 933686
363.81 933686
363.885 922546
363.96 911406
364.035 911406
364.11 911406
364.185 900286
364.26 889165
364.335 889165
364.41 889165
364.485 912036
364.56 934907
364.635 934907
364.71 934907
364.785 957740
364.86 980573
364.935 980573
365.01 980573
365.085 1.00337e+06
365.16 1.02616e+06
365.235 1.02616e+06
365.31 1.02616e+06
365.385 1.04892e+06
365.46 1.07168e+06
365.535 1.07168e+06
365.61 1.07168e+06
365.685 1.0944e+06
365.76 1.11712e+06
365.835 1.11712e+06
365.91 1.11712e+06
365.985 1.13981e+06
366.06 1.16249e+06
366.135 1.16249e+06
366.21 1.16249e+06
366.285 1.18514e+06
366.36 1.20778e+06
366.435 1.20778e+06
366.51 1.20778e+06
366.585 1.23039e+06
366.66 1.253e+06
366.735 1.253e+06
366.81 1.253e+06
366.885 1.27557e+06
366.96 1.29814e+06
367.035 1.29814e+06
367.11 1.29814e+06
367.185 1.32068e+06
367.26 1.34322e+06
367.335 1.34322e+06
367.41 1.34322e+06
367.485 1.35146e+06
367.56 1.3597e+06
367.635 1.3597e+06
367.71 1.3597e+06
367.785 1.36794e+06
367.86 1.37617e+06
367.935 1.37617e+06
368.01 1.37617e+06
368.085 1.38438e+06
368.16 1.3926e+06
368.235 1.3926e+06
368.31 1.3926e+06
368.385 1.40081e+06
368.46 1.40901e+06
368.535 1.40901e+06
368.61 1.40901e+06
368.685 1.4172e+06
368.76 1.4254e+06
368.835 1.4254e+06
368.91 1.4254e+06
368.985 1.43357e+06
369.06 1.44175e+06
369.135 1.44175e+06
369.21 1.44175e+06
369.285 1.44991e+06
369.36 1.45808e+06
369.435 1.45808e+06
369.51 1.45808e+06
369.585 1.46623e+06
369.66 1.47438e+06
369.735 1.47438e+06
369.81 1.47438e+06
369.885 1.48252e+06
369.96 1.49066e+06
370.035 1.49066e+06
370.11 1.49066e+06
370.185 1.49878e+06
370.26 1.50691e+06
370.335 1.50691e+06
370.41 1.50691e+06
370.485 1.50639e+06
370.56 1.50587e+06
370.635 1.50587e+06
370.71 1.50587e+06
370.785 1.50535e+06
370.86 1.50483e+06
370.935 1.50483e+06
371.01 1.50483e+06
371.085 1.50432e+06
371.16 1.5038e+06
371.235 1.5038e+06
371.31 1.5038e+06
371.385 1.50329e+06
371.46 1.50278e+06
371.535 1.50278e+06
371.61 1.50278e+06
371.685 1.50226e+06
371.76 1.50175e+06
371.835 1.50175e+06
371.91 1.50175e+06
371.985 1.50123e+06
372.06 1.50072e+06
372.135 1.50072e+06
372.21 1.50072e+06
372.285 1.50021e+06
372.36 1.49969e+06
372.435 1.49969e+06
372.51 1.49969e+06
372.585 1.49918e+06
372.66 1.49866e+06
372.735 1.49866e+06
372.81 1.49866e+06
372.885 1.49815e+06
372.96 1.49764e+06
373.035 1.49764e+06
373.11 1.49764e+06
373.185 1.49713e+06
373.26 1.49662e+06
373.335 1.49662e+06
373.41 1.49662e+06
373.485 1.49297e+06
373.56 1.48933e+06
373.635 1.48933e+06
373.71 1.48933e+06
373.785 1.48569e+06
373.86 1.48205e+06
373.935 1.48205e+06
374.01 1.48205e+06
374.085 1.47841e+06
374.16 1.47477e+06
374.235 1.47477e+06
374.31 1.47477e+06
374.385 1.47114e+06
374.46 1.46751e+06
374.535 1.46751e+06
374.61 1.46751e+06
374.685 1.46389e+06
374.76 1.46027e+06
374.835 1.46027e+06
374.91 1.46027e+06
374.985 1.45665e+06
375.06 1.45303e+06
375.135 1.45303e+06
375.21 1.45303e+06
375.285 1.44942e+06
375.36 1.4458e+06
375.435 1.4458e+06
375.51 1.4458e+06
375.585 1.4422e+06
375.66 1.43859e+06
375.735 1.43859e+06
375.81 1.43859e+06
375.885 1.43499e+06
375.96 1.43139e+06
376.035 1.43139e+06
376.11 1.43139e+06
376.185 1.42779e+06
376.26 1.4242e+06
376.335 1.4242e+06
376.41 1.4242e+06
376.485 1.42535e+06
376.56 1.4265e+06
376.635 1.4265e+06
376.71 1.4265e+06
376.785 1.42765e+06
376.86 1.4288e+06
376.935 1.4288e+06
377.01 1.4288e+06
377.085 1.42995e+06
377.16 1.43109e+06
377.235 1.43109e+06
377.31 1.43109e+06
377.385 1.43224e+06
377.46 1.43338e+06
377.535 1.43338e+06
377.61 1.43338e+06
377.685 1.43453e+06
377.76 1.43567e+06
377.835 1.43567e+06
377.91 1.43567e+06
377.985 1.43682e+06
378.06 1.43796e+06
378.135 1.43796e+06
378.21 1.43796e+06
378.285 1.4391e+06
378.36 1.44024e+06
378.435 1.44024e+06
378.51 1.44024e+06
378.585 1.44138e+06
378.66 1.44252e+06
378.735 1.44252e+06
378.81 1.44252e+06
378.885 1.44366e+06
378.96 1.44479e+06
379.035 1.44479e+06
379.11 1.44479e+06
379.185 1.44593e+06
379.26 1.44706e+06
379.335 1.44706e+06
379.41 1.44706e+06
379.485 1.45001e+06
379.56 1.45295e+06
379.635 1.45295e+06
379.71 1.45295e+06
379.785 1.45589e+06
379.86 1.45884e+06
379.935 1.45884e+06
380.01 1.45884e+06
380.085 1.46178e+06
380.16 1.46471e+06
380.235 1.46471e+06
380.31 1.46471e+06
380.385 1.46765e+06
380.46 1.47058e+06
380.535 1.47058e+06
380.61 1.47058e+06
380.685 1.47351e+06
380.76 1.47643e+06
380.835 1.47643e+06
380.91 1.47643e+06
380.985 1.47935e+06
381.06 1.48227e+06
381.135 1.48227e+06
381.21 1.48227e+06
381.285 1.48519e+06
381.36 1.48811e+06
381.435 1.48811e+06
381.51 1.48811e+06
381.585 1.49103e+06
381.66 1.49394e+06
381.735 1.49394e+06
381.81 1.49394e+06
381.885 1.49685e+06
381.96 1.49976e+06
382.035 1.49976e+06
382.11 1.49976e+06
382.185 1.50267e+06
382.26 1.50557e+06
382.335 1.50557e+06
382.41 1.50557e+06
382.485 1.50469e+06
382.56 1.50381e+06
382.635 1.50381e+06
382.71 1.50381e+06
382.785 1.50293e+06
382.86 1.50205e+06
382.935 1.50205e+06
383.01 1.50205e+06
383.085 1.50117e+06
383.16 1.50029e+06
383.235 1.50029e+06
383.31 1.50029e+06
383.385 1.49941e+06
383.46 1.49853e+06
383.535 1.49853e+06
383.61 1.49853e+06
383.685 1.49766e+06
383.76 1.49678e+06
383.835 1.49678e+06
383.91 1.49678e+06
383.985 1.4959e+06
384.06 1.49503e+06
384.135 1.49503e+06
384.21 1.49503e+06
384.285 1.49415e+06
384.36 1.49328e+06
384.435 1.49328e+06
384.51 1.49328e+06
384.585 1.49241e+06
384.66 1.49154e+06
384.735 1.49154e+06
384.81 1.49154e+06
384.885 1.49067e+06
384.96 1.48979e+06
385.035 1.48979e+06
385.11 1.48979e+06
385.185 1.48892e+06
385.26 1.48805e+06
385.335 1.48805e+06
385.41 1.48805e+06
385.485 1.47515e+06
385.56 1.46226e+06
385.635 1.46226e+06
385.71 1.46226e+06
385.785 1.44938e+06
385.86 1.4365e+06
385.935 1.4365e+06
386.01 1.4365e+06
386.085 1.42364e+06
386.16 1.41078e+06
386.235 1.41078e+06
386.31 1.41078e+06
386.385 1.39795e+06
386.46 1.38511e+06
386.535 1.38511e+06
386.61 1.38511e+06
386.685 1.37229e+06
386.76 1.35947e+06
386.835 1.35947e+06
386.91 1.35947e+06
386.985 1.34667e+06
387.06 1.33388e+06
387.135 1.33388e+06
387.21 1.33388e+06
387.285 1.3211e+06
387.36 1.30832e+06
387.435 1.30832e+06
387.51 1.30832e+06
387.585 1.29556e+06
387.66 1.2828e+06
387.735 1.2828e+06
387.81 1.2828e+06
387.885 1.27006e+06
387.96 1.25732e+06
388.035 1.25732e+06
388.11 1.25732e+06
388.185 1.24461e+06
388.26 1.23189e+06
388.335 1.23189e+06
388.41 1.23189e+06
388.485 1.23449e+06
388.56 1.2371e+06
388.635 1.2371e+06
388.71 1.2371e+06
388.785 1.2397e+06
388.86 1.24231e+06
388.935 1.24231e+06
389.01 1.24231e+06
389.085 1.24491e+06
389.16 1.24751e+06
389.235 1.24751e+06
389.31 1.24751e+06
389.385 1.25011e+06
389.46 1.2527e+06
389.535 1.2527e+06
389.61 1.2527e+06
389.685 1.25529e+06
389.76 1.25789e+06
389.835 1.25789e+06
389.91 1.25789e+06
389.985 1.26047e+06
390.06 1.26306e+06
390.135 1.26306e+06
390.21 1.26306e+06
390.285 1.26564e+06
390.36 1.26823e+06
390.435 1.26823e+06
390.51 1.26823e+06
390.585 1.27081e+06
390.66 1.27339e+06
390.735 1.27339e+06
390.81 1.27339e+06
390.885 1.27597e+06
390.96 1.27855e+06
391.035 1.27855e+06
391.11 1.27855e+06
391.185 1.28112e+06
391.26 1.28369e+06
391.335 1.28369e+06
391.41 1.28369e+06
391.485 1.29181e+06
391.56 1.29994e+06
391.635 1.29994e+06
391.71 1.29994e+06
391.785 1.30805e+06
391.86 1.31616e+06
391.935 1.31616e+06
392.01 1.31616e+06
392.085 1.32426e+06
392.16 1.33236e+06
392.235 1.33236e+06
392.31 1.33236e+06
392.385 1.34044e+06
392.46 1.34853e+06
392.535 1.34853e+06
392.61 1.34853e+06
392.685 1.3566e+06
392.76 1.36468e+06
392.835 1.36468e+06
392.91 1.36468e+06
392.985 1.37274e+06
393.06 1.3808e+06
393.135 1.3808e+06
393.21 1.3808e+06
393.285 1.38885e+06
393.36 1.3969e+06
393.435 1.3969e+06
393.51 1.3969e+06
393.585 1.40494e+06
393.66 1.41297e+06
393.735 1.41297e+06
393.81 1.41297e+06
393.885 1.421e+06
393.96 1.42902e+06
394.035 1.42902e+06
394.11 1.42902e+06
394.185 1.43704e+06
394.26 1.44505e+06
394.335 1.44505e+06
394.41 1.44505e+06
394.485 1.44013e+06
394.56 1.43522e+06
394.635 1.43522e+06
394.71 1.43522e+06
394.785 1.4303e+06
394.86 1.42539e+06
394.935 1.42539e+06
395.01 1.42539e+06
395.085 1.42049e+06
395.16 1.41559e+06
395.235 1.41559e+06
395.31 1.41559e+06
395.385 1.41069e+06
395.46 1.4058e+06
395.535 1.4058e+06
395.61 1.4058e+06
395.685 1.40091e+06
395.76 1.39603e+06
395.835 1.39603e+06
395.91 1.39603e+06
395.985 1.39115e+06
396.06 1.38627e+06
396.135 1.38627e+06
396.21 1.38627e+06
396.285 1.38139e+06
396.36 1.37651e+06
396.435 1.37651e+06
396.51 1.37651e+06
396.585 1.37165e+06
396.66 1.36678e+06
396.735 1.36678e+06
396.81 1.36678e+06
396.885 1.36193e+06
396.96 1.35707e+06
397.035 1.35707e+06
397.11 1.35707e+06
397.185 1.35222e+06
397.26 1.34737e+06
397.335 1.34737e+06
397.41 1.34737e+06
397.485 1.34465e+06
397.56 1.34192e+06
397.635 1.34192e+06
397.71 1.34192e+06
397.785 1.33921e+06
397.86 1.33649e+06
397.935 1.33649e+06
398.01 1.33649e+06
398.085 1.33377e+06
398.16 1.33106e+06
398.235 1.33106e+06
398.31 1.33106e+06
398.385 1.32835e+06
398.46 1.32565e+06
398.535 1.32565e+06
398.61 1.32565e+06
398.685 1.32294e+06
398.76 1.32024e+06
398.835 1.32024e+06
398.91 1.32024e+06
398.985 1.31754e+06
399.06 1.31483e+06
399.135 1.31483e+06
399.21 1.31483e+06
399.285 1.31214e+06
399.36 1.30944e+06
399.435 1.30944e+06
399.51 1.30944e+06
399.585 1.30675e+06
399.66 1.30406e+06
399.735 1.30406e+06
399.81 1.30406e+06
399.885 1.30137e+06
399.96 1.29867e+06
400.035 1.29867e+06
400.11 1.29867e+06
400.185 1.29599e+06
400.26 1.29331e+06
400.335 1.29331e+06
400.41 1.29331e+06
400.485 1.29456e+06
400.56 1.29581e+06
400.635 1.29581e+06
400.71 1.29581e+06
400.785 1.29705e+06
400.86 1.2983e+06
400.935 1.2983e+06
401.01 1.2983e+06
401.085 1.29955e+06
401.16 1.30079e+06
401.235 1.30079e+06
401.31 1.30079e+06
401.385 1.30203e+06
401.46 1.30327e+06
401.535 1.30327e+06
401.61 1.30327e+06
401.685 1.30452e+06
401.76 1.30576e+06
401.835 1.30576e+06
401.91 1.30576e+06
401.985 1.307e+06
402.06 1.30823e+06
402.135 1.30823e+06
402.21 1.30823e+06
402.285 1.30947e+06
402.36 1.31071e+06
402.435 1.31071e+06
402.51 1.31071e+06
402.585 1.31195e+06
402.66 1.31318e+06
402.735 1.31318e+06
402.81 1.31318e+06
402.885 1.31442e+06
402.96 1.31565e+06
403.035 1.31565e+06
403.11 1.31565e+06
403.185 1.31688e+06
403.26 1.31812e+06
403.335 1.31812e+06
403.41 1.31812e+06
403.485 1.31686e+06
403.56 1.3156e+06
403.635 1.3156e+06
403.71 1.3156e+06
403.785 1.31435e+06
403.86 1.31309e+06
403.935 1.31309e+06
404.01 1.31309e+06
404.085 1.31184e+06
404.16 1.3106e+06
404.235 1.3106e+06
404.31 1.3106e+06
404.385 1.30934e+06
404.46 1.30809e+06
404.535 1.30809e+06
404.61 1.30809e+06
404.685 1.30685e+06
404.76 1.3056e+06
404.835 1.3056e+06
404.91 1.3056e+06
404.985 1.30435e+06
405.06 1.3031e+06
405.135 1.3031e+06
405.21 1.3031e+06
405.285 1.30186e+06
405.36 1.30062e+06
405.435 1.30062e+06
405.51 1.30062e+06
405.585 1.29937e+06
405.66 1.29813e+06
405.735 1.29813e+06
405.81 1.29813e+06
405.885 1.29689e+06
405.96 1.29565e+06
406.035 1.29565e+06
406.11 1.29565e+06
406.185 1.29441e+06
406.26 1.29317e+06
406.335 1.29317e+06
406.41 1.29317e+06
406.485 1.28809e+06
406.56 1.28302e+06
406.635 1.28302e+06
406.71 1.28302e+06
406.785 1.27795e+06
406.86 1.27289e+06
406.935 1.27289e+06
407.01 1.27289e+06
407.085 1.26783e+06
407.16 1.26277e+06
407.235 1.26277e+06
407.31 1.26277e+06
407.385 1.25772e+06
407.46 1.25267e+06
407.535 1.25267e+06
407.61 1.25267e+06
407.685 1.24762e+06
407.76 1.24258e+06
407.835 1.24258e+06
407.91 1.24258e+06
407.985 1.23754e+06
408.06 1.2325e+06
408.135 1.2325e+06
408.21 1.2325e+06
408.285 1.22747e+06
408.36 1.22244e+06
408.435 1.22244e+06
408.51 1.22244e+06
408.585 1.21742e+06
408.66 1.2124e+06
408.735 1.2124e+06
408.81 1.2124e+06
408.885 1.20739e+06
408.96 1.20237e+06
409.035 1.20237e+06
409.11 1.20237e+06
409.185 1.19736e+06
409.26 1.19236e+06
409.335 1.19236e+06
409.41 1.19236e+06
409.485 1.19042e+06
409.56 1.18849e+06
409.635 1.18849e+06
409.71 1.18849e+06
409.785 1.18655e+06
409.86 1.18462e+06
409.935 1.18462e+06
410.01 1.18462e+06
410.085 1.18269e+06
410.16 1.18077e+06
410.235 1.18077e+06
410.31 1.18077e+06
410.385 1.17884e+06
410.46 1.17691e+06
410.535 1.17691e+06
410.61 1.17691e+06
410.685 1.17498e+06
410.76 1.17306e+06
410.835 1.17306e+06
410.91 1.17306e+06
410.985 1.17114e+06
411.06 1.16922e+06
411.135 1.16922e+06
411.21 1.16922e+06
411.285 1.1673e+06
411.36 1.16538e+06
411.435 1.16538e+06
411.51 1.16538e+06
411.585 1.16347e+06
411.66 1.16155e+06
411.735 1.16155e+06
411.81 1.16155e+06
411.885 1.15964e+06
411.96 1.15772e+06
412.035 1.15772e+06
412.11 1.15772e+06
412.185 1.15581e+06
412.26 1.15391e+06
412.335 1.15391e+06
412.41 1.15391e+06
412.485 1.15231e+06
412.56 1.15072e+06
412.635 1.15072e+06
412.71 1.15072e+06
412.785 1.14912e+06
412.86 1.14753e+06
412.935 1.14753e+06
413.01 1.14753e+06
413.085 1.14594e+06
413.16 1.14435e+06
413.235 1.14435e+06
413.31 1.14435e+06
413.385 1.14277e+06
413.46 1.14118e+06
413.535 1.14118e+06
413.61 1.14118e+06
413.685 1.13959e+06
413.76 1.13801e+06
413.835 1.13801e+06
413.91 1.13801e+06
413.985 1.13643e+06
414.06 1.13484e+06
414.135 1.13484e+06
414.21 1.13484e+06
414.285 1.13327e+06
414.36 1.13169e+06
414.435 1.13169e+06
414.51 1.13169e+06
414.585 1.13011e+06
414.66 1.12853e+06
414.735 1.12853e+06
414.81 1.12853e+06
414.885 1.12695e+06
414.96 1.12538e+06
415.035 1.12538e+06
415.11 1.12538e+06
415.185 1.1238e+06
415.26 1.12223e+06
415.335 1.12223e+06
415.41 1.12223e+06
415.485 1.10461e+06
415.56 1.087e+06
415.635 1.087e+06
415.71 1.087e+06
415.785 1.0694e+06
415.86 1.05181e+06
415.935 1.05181e+06
416.01 1.05181e+06
416.085 1.03424e+06
416.16 1.01667e+06
416.235 1.01667e+06
416.31 1.01667e+06
416.385 999127
416.46 981585
416.535 981585
416.61 981585
416.685 964066
416.76 946548
416.835 946548
416.91 946548
416.985 929055
417.06 911563
417.135 911563
417.21 911563
417.285 894097
417.36 876630
417.435 876630
417.51 876630
417.585 859187
417.66 841744
417.735 841744
417.81 841744
417.885 824327
417.96 806910
418.035 806910
418.11 806910
418.185 789519
418.26 772128
418.335 772128
418.41 772128
418.485 774299
418.56 776469
418.635 776469
418.71 776469
418.785 778639
418.86 780808
418.935 780808
419.01 780808
419.085 782974
419.16 785139
419.235 785139
419.31 785139
419.385 787304
419.46 789469
419.535 789469
419.61 789469
419.685 791629
419.76 793789
419.835 793789
419.91 793789
419.985 795945
420.06 798101
420.135 798101
420.21 798101
420.285 800255
420.36 802409
420.435 802409
420.51 802409
420.585 804560
420.66 806711
420.735 806711
420.81 806711
420.885 808859
420.96 811007
421.035 811007
421.11 811007
421.185 813151
421.26 815295
421.335 815295
421.41 815295
421.485 824769
421.56 834244
421.635 834244
421.71 834244
421.785 843704
421.86 853164
421.935 853164
422.01 853164
422.085 862612
422.16 872061
422.235 872061
422.31 872061
422.385 881495
422.46 890929
422.535 890929
422.61 890929
422.685 900350
422.76 909770
422.835 909770
422.91 909770
422.985 919179
423.06 928588
423.135 928588
423.21 928588
423.285 937982
423.36 947375
423.435 947375
423.51 947375
423.585 956756
423.66 966136
423.735 966136
423.81 966136
423.885 975504
423.96 984873
424.035 984873
424.11 984873
424.185 994224
424.26 1.00358e+06
424.335 1.00358e+06
424.41 1.00358e+06
424.485 1.00165e+06
424.56 999715
424.635 999715
424.71 999715
424.785 997781
424.86 995847
424.935 995847
425.01 995847
425.085 993921
425.16 991994
425.235 991994
425.31 991994
425.385 990069
425.46 988144
425.535 988144
425.61 988144
425.685 986220
425.76 984297
425.835 984297
425.91 984297
425.985 982376
426.06 980455
426.135 980455
426.21 980455
426.285 978537
426.36 976620
426.435 976620
426.51 976620
426.585 974706
426.66 972791
426.735 972791
426.81 972791
426.885 970878
426.96 968966
427.035 968966
427.11 968966
427.185 967056
427.26 965145
427.335 965145
427.41 965145
427.485 967209
427.56 969273
427.635 969273
427.71 969273
427.785 971334
427.86 973394
427.935 973394
428.01 973394
428.085 975450
428.16 977507
428.235 977507
428.31 977507
428.385 979560
428.46 981612
428.535 981612
428.61 981612
428.685 983664
428.76 985716
428.835 985716
428.91 985716
428.985 987763
429.06 989811
429.135 989811
429.21 989811
429.285 991857
429.36 993902
429.435 993902
429.51 993902
429.585 995947
429.66 997992
429.735 997992
429.81 997992
429.885 1.00003e+06
429.96 1.00207e+06
430.035 1.00207e+06
430.11 1.00207e+06
430.185 1.00411e+06
430.26 1.00614e+06
430.335 1.00614e+06
430.41 1.00614e+06
430.485 1.00718e+06
430.56 1.00822e+06
430.635 1.00822e+06
430.71 1.00822e+06
430.785 1.00925e+06
430.86 1.01029e+06
430.935 1.01029e+06
431.01 1.01029e+06
431.085 1.01133e+06
431.16 1.01236e+06
431.235 1.01236e+06
431.31 1.01236e+06
431.385 1.01339e+06
431.46 1.01443e+06
431.535 1.01443e+06
431.61 1.01443e+06
431.685 1.01546e+06
431.76 1.01649e+06
431.835 1.01649e+06
431.91 1.01649e+06
431.985 1.01752e+06
432.06 1.01855e+06
432.135 1.01855e+06
432.21 1.01855e+06
432.285 1.01958e+06
432.36 1.02061e+06
432.435 1.02061e+06
432.51 1.02061e+06
432.585 1.01861e+06
432.66 1.01662e+06
432.735 1.01662e+06
432.81 1.01662e+06
432.885 1.01463e+06
432.96 1.01264e+06
433.035 1.01264e+06
433.11 1.01264e+06
433.185 1.01065e+06
433.26 1.00866e+06
433.335 1.00866e+06
433.41 1.00866e+06
433.485 1.00668e+06
433.56 1.00469e+06
433.635 1.00469e+06
433.71 1.00469e+06
433.785 1.00271e+06
433.86 1.00073e+06
433.935 1.00073e+06
434.01 1.00073e+06
434.085 998541
434.16 996357
434.235 996357
434.31 996357
434.385 994176
434.46 991995
434.535 991995
434.61 991995
434.685 989818
434.76 987642
434.835 987642
434.91 987642
434.985 985468
435.06 983294
435.135 983294
435.21 983294
435.285 981123
435.36 978952
435.435 978952
435.51 978952
435.585 976785
435.66 974619
435.735 974619
435.81 974619
435.885 972456
435.96 970292
436.035 970292
436.11 970292
436.185 968130
436.26 965967
436.335 965967
436.41 965967
436.485 961781
436.56 957595
436.635 957595
436.71 957595
436.785 953414
436.86 949233
436.935 949233
437.01 949233
437.085 945061
437.16 940890
437.235 940890
437.31 940890
437.385 936722
437.46 932554
437.535 932554
437.61 932554
437.685 928391
437.76 924228
437.835 924228
437.91 924228
437.985 920070
438.06 915913
438.135 915913
438.21 915913
438.285 911762
438.36 907611
438.435 907611
438.51 907611
438.585 903468
438.66 899325
438.735 899325
438.81 899325
438.885 895185
438.96 891045
439.035 891045
439.11 891045
439.185 886911
439.26 882777
439.335 882777
439.41 882777
439.485 883831
439.56 884884
439.635 884884
439.71 884884
439.785 885936
439.86 886988
439.935 886988
440.01 886988
440.085 888039
440.16 889090
440.235 889090
440.31 889090
440.385 890141
440.46 891192
440.535 891192
440.61 891192
440.685 892238
440.76 893284
440.835 893284
440.91 893284
440.985 894331
441.06 895378
441.135 895378
441.21 895378
441.285 896424
441.36 897470
441.435 897470
441.51 897470
441.585 898513
441.66 899556
441.735 899556
441.81 899556
441.885 900600
441.96 901643
442.035 901643
442.11 901643
442.185 902683
442.26 903723
442.335 903723
442.41 903723
442.485 903233
442.56 902742
442.635 902742
442.71 902742
442.785 902251
442.86 901760
442.935 901760
443.01 901760
443.085 901269
443.16 900779
443.235 900779
443.31 900779
443.385 900291
443.46 899803
443.535 899803
443.61 899803
443.685 899315
443.76 898827
443.835 898827
443.91 898827
443.985 898339
444.06 897852
444.135 897852
444.21 897852
444.285 897362
444.36 896872
444.435 896872
444.51 896872
444.585 896387
444.66 895901
444.735 895901
444.81 895901
444.885 895416
444.96 894931
445.035 894931
445.11 894931
445.185 894445
445.26 893960
445.335 893960
445.41 893960
445.485 892960
445.56 891960
445.635 891960
445.71 891960
445.785 890964
445.86 889968
445.935 889968
446.01 889968
446.085 888972
446.16 887976
446.235 887976
446.31 887976
446.385 886981
446.46 885986
446.535 885986
446.61 885986
446.685 884994
446.76 884001
446.835 884001
446.91 884001
446.985 883011
447.06 882020
447.135 882020
447.21 882020
447.285 881030
447.36 880039
447.435 880039
447.51 880039
447.585 879050
447.66 878061
447.735 878061
447.81 878061
447.885 877071
447.96 876082
448.035 876082
448.11 876082
448.185 875097
448.26 874111
448.335 874111
448.41 874111
448.485 869849
448.56 865587
448.635 865587
448.71 865587
448.785 861330
448.86 857072
448.935 857072
449.01 857072
449.085 852822
449.16 848572
449.235 848572
449.31 848572
449.385 844328
449.46 840084
449.535 840084
449.61 840084
449.685 835845
449.76 831605
449.835 831605
449.91 831605
449.985 827370
450.06 823134
450.135 823134
450.21 823134
450.285 818907
450.36 814680
450.435 814680
450.51 814680
450.585 810458
450.66 806236
450.735 806236
450.81 806236
450.885 802019
450.96 797802
451.035 797802
451.11 797802
451.185 793591
451.26 789380
451.335 789380
451.41 789380
451.485 782499
451.56 775617
451.635 775617
451.71 775617
451.785 768745
451.86 761873
451.935 761873
452.01 761873
452.085 755010
452.16 748147
452.235 748147
452.31 748147
452.385 741292
452.46 734437
452.535 734437
452.61 734437
452.685 727593
452.76 720750
452.835 720750
452.91 720750
452.985 713913
453.06 707076
453.135 707076
453.21 707076
453.285 700249
453.36 693423
453.435 693423
453.51 693423
453.585 695839
453.66 698256
453.735 698256
453.81 698256
453.885 700669
453.96 703082
454.035 703082
454.11 703082
454.185 705494
454.26 707906
454.335 707906
454.41 707906
454.485 710313
454.56 712721
454.635 712721
454.71 712721
454.785 715124
454.86 717528
454.935 717528
455.01 717528
455.085 719049
455.16 720570
455.235 720570
455.31 720570
455.385 722088
455.46 723605
455.535 723605
455.61 723605
455.685 725121
455.76 726637
455.835 726637
455.91 726637
455.985 728150
456.06 729663
456.135 729663
456.21 729663
456.285 731177
456.36 732690
456.435 732690
456.51 732690
456.585 734199
456.66 735708
456.735 735708
456.81 735708
456.885 737217
456.96 738726
457.035 738726
457.11 738726
457.185 740231
457.26 741735
457.335 741735
457.41 741735
457.485 735237
457.56 728739
457.635 728739
457.71 728739
457.785 722251
457.86 715763
457.935 715763
458.01 715763
458.085 709281
458.16 702800
458.235 702800
458.31 702800
458.385 696327
458.46 689855
458.535 689855
458.61 689855
458.685 683391
458.76 676926
458.835 676926
458.91 676926
458.985 670472
459.06 664017
459.135 664017
459.21 664017
459.285 657569
459.36 651121
459.435 651121
459.51 651121
459.585 644683
459.66 638244
459.735 638244
459.81 638244
459.885 631814
459.96 625384
460.035 625384
460.11 625384
460.185 618962
460.26 612541
460.335 612541
460.41 612541
460.485 610477
460.56 608414
460.635 608414
460.71 608414
460.785 606354
460.86 604294
460.935 604294
461.01 604294
461.085 602236
461.16 600178
461.235 600178
461.31 600178
461.385 598124
461.46 596070
461.535 596070
461.61 596070
461.685 594018
461.76 591965
461.835 591965
461.91 591965
461.985 589915
462.06 587865
462.135 587865
462.21 587865
462.285 585819
462.36 583772
462.435 583772
462.51 583772
462.585 581728
462.66 579683
462.735 579683
462.81 579683
462.885 577641
462.96 575600
463.035 575600
463.11 575600
463.185 573562
463.26 571524
463.335 571524
463.41 571524
463.485 571206
463.56 570888
463.635 570888
463.71 570888
463.785 570572
463.86 570256
463.935 570256
464.01 570256
464.085 569939
464.16 569622
464.235 569622
464.31 569622
464.385 569305
464.46 568988
464.535 568988
464.61 568988
464.685 568673
464.76 568357
464.835 568357
464.91 568357
464.985 568042
465.06 567727
465.135 567727
465.21 567727
465.285 567412
465.36 567098
465.435 567098
465.51 567098
465.585 566783
465.66 566468
465.735 566468
465.81 566468
465.885 566153
465.96 565838
466.035 565838
466.11 565838
466.185 565525
466.26 565212
466.335 565212
466.41 565212
466.485 568489
466.56 571766
466.635 571766
466.71 571766
466.785 575039
466.86 578313
466.935 578313
467.01 578313
467.085 581581
467.16 584850
467.235 584850
467.31 584850
467.385 588115
467.46 591380
467.535 591380
467.61 591380
467.685 594640
467.76 597899
467.835 597899
467.91 597899
467.985 601156
468.06 604412
468.135 604412
468.21 604412
468.285 607664
468.36 610916
468.435 610916
468.51 610916
468.585 614165
468.66 617414
468.735 617414
468.81 617414
468.885 620658
468.96 623902
469.035 623902
469.11 623902
469.185 627140
469.26 630379
469.335 630379
469.41 630379
469.485 632702
469.56 635025
469.635 635025
469.71 635025
469.785 637344
469.86 639664
469.935 639664
470.01 639664
470.085 641981
470.16 644298
470.235 644298
470.31 644298
470.385 646611
470.46 648925
470.535 648925
470.61 648925
470.685 651236
470.76 653547
470.835 653547
470.91 653547
470.985 655855
471.06 658164
471.135 658164
471.21 658164
471.285 660468
471.36 662773
471.435 662773
471.51 662773
471.585 665075
471.66 667377
471.735 667377
471.81 667377
471.885 669677
471.96 671977
472.035 671977
472.11 671977
472.185 674272
472.26 676567
472.335 676567
472.41 676567
472.485 676755
472.56 676942
472.635 676942
472.71 676942
472.785 677129
472.86 677315
472.935 677315
473.01 677315
473.085 677502
473.16 677689
473.235 677689
473.31 677689
473.385 677874
473.46 678059
473.535 678059
473.61 678059
473.685 678245
473.76 678431
473.835 678431
473.91 678431
473.985 678615
474.06 678799
474.135 678799
474.21 678799
474.285 678986
474.36 679173
474.435 679173
474.51 679173
474.585 679356
474.66 679539
474.735 679539
474.81 679539
474.885 679725
474.96 679911
475.035 679911
475.11 679911
475.185 680095
475.26 680280
475.335 680280
475.41 680280
475.485 679803
475.56 679325
475.635 679325
475.71 679325
475.785 678846
475.86 678366
475.935 678366
476.01 678366
476.085 677891
476.16 677415
476.235 677415
476.31 677415
476.385 676939
476.46 676464
476.535 676464
476.61 676464
476.685 675987
476.76 675511
476.835 675511
476.91 675511
476.985 675036
477.06 674562
477.135 674562
477.21 674562
477.285 674087
477.36 673612
477.435 673612
477.51 673612
477.585 673138
477.66 672665
477.735 672665
477.81 672665
477.885 672191
477.96 671718
478.035 671718
478.11 671718
478.185 671244
478.26 670771
478.335 670771
478.41 670771
478.485 671237
478.56 671703
478.635 671703
478.71 671703
478.785 672169
478.86 672635
478.935 672635
479.01 672635
479.085 673099
479.16 673564
479.235 673564
479.31 673564
479.385 674028
479.46 674492
479.535 674492
479.61 674492
479.685 674954
479.76 675417
479.835 675417
479.91 675417
479.985 675881
480.06 676345
480.135 676345
480.21 676345
480.285 676807
480.36 677269
480.435 677269
480.51 677269
480.585 677730
480.66 678192
480.735 678192
480.81 678192
480.885 678653
480.96 679115
481.035 679115
481.11 679115
481.185 679575
481.26 680035
481.335 680035
481.41 680035
481.485 679113
481.56 678192
481.635 678192
481.71 678192
481.785 677272
481.86 676352
481.935 676352
482.01 676352
482.085 675432
482.16 674511
482.235 674511
482.31 674511
482.385 673593
482.46 672674
482.535 672674
482.61 672674
482.685 671757
482.76 670840
482.835 670840
482.91 670840
482.985 669924
483.06 669009
483.135 669009
483.21 669009
483.285 668093
483.36 667177
483.435 667177
483.51 667177
483.585 666264
483.66 665351
483.735 665351
483.81 665351
483.885 664437
483.96 663523
484.035 663523
484.11 663523
484.185 662612
484.26 661700
484.335 661700
484.41 661700
484.485 661163
484.56 660625
484.635 660625
484.71 660625
484.785 660087
484.86 659550
484.935 659550
485.01 659550
485.085 659013
485.16 658475
485.235 658475
485.31 658475
485.385 657938
485.46 657401
485.535 657401
485.61 657401
485.685 656865
485.76 656329
485.835 656329
485.91 656329
485.985 655794
486.06 655259
486.135 655259
486.21 655259
486.285 654724
486.36 654189
486.435 654189
486.51 654189
486.585 653656
486.66 653122
486.735 653122
486.81 653122
486.885 652588
486.96 652054
487.035 652054
487.11 652054
487.185 651521
487.26 650989
487.335 650989
487.41 650989
487.485 653044
487.56 655099
487.635 655099
487.71 655099
487.785 657150
487.86 659200
487.935 659200
488.01 659200
488.085 661248
488.16 663297
488.235 663297
488.31 663297
488.385 665344
488.46 667391
488.535 667391
488.61 667391
488.685 669433
488.76 671476
488.835 671476
488.91 671476
488.985 673517
489.06 675558
489.135 675558
489.21 675558
489.285 677597
489.36 679636
489.435 679636
489.51 679636
489.585 681671
489.66 683706
489.735 683706
489.81 683706
489.885 685740
489.96 687775
490.035 687775
490.11 687775
490.185 689806
490.26 691836
490.335 691836
490.41 691836
490.485 691781
490.56 691726
490.635 691726
490.71 691726
490.785 691669
490.86 691612
490.935 691612
491.01 691612
491.085 691557
491.16 691501
491.235 691501
491.31 691501
491.385 691446
491.46 691391
491.535 691391
491.61 691391
491.685 691334
491.76 691277
491.835 691277
491.91 691277
491.985 691222
492.06 691168
492.135 691168
492.21 691168
492.285 691111
492.36 691055
492.435 691055
492.51 691055
492.585 691000
492.66 690944
492.735 690944
492.81 690944
492.885 690888
492.96 690831
493.035 690831
493.11 690831
493.185 690776
493.26 690721
493.335 690721
493.41 690721
493.485 690386
493.56 690051
493.635 690051
493.71 690051
493.785 689716
493.86 689381
493.935 689381
494.01 689381
494.085 689045
494.16 688710
494.235 688710
494.31 688710
494.385 688375
494.46 688041
494.535 688041
494.61 688041
494.685 687707
494.76 687374
494.835 687374
494.91 687374
494.985 687040
495.06 686706
495.135 686706
495.21 686706
495.285 686373
495.36 686040
495.435 686040
495.51 686040
495.585 685706
495.66 685373
495.735 685373
495.81 685373
495.885 685041
495.96 684710
496.035 684710
496.11 684710
496.185 684378
496.26 684045
496.335 684045
496.41 684045
496.485 684374
496.56 684703
496.635 684703
496.71 684703
496.785 685033
496.86 685362
496.935 685362
497.01 685362
497.085 685691
497.16 686020
497.235 686020
497.31 686020
497.385 686349
497.46 686678
497.535 686678
497.61 686678
497.685 687006
497.76 687334
497.835 687334
497.91 687334
497.985 687661
498.06 687989
498.135 687989
498.21 687989
498.285 688316
498.36 688643
498.435 688643
498.51 688643
498.585 688971
498.66 689298
498.735 689298
498.81 689298
498.885 689625
498.96 689951
499.035 689951
499.11 689951
499.185 690278
499.26 690604
499.335 690604
499.41 690604
499.485 687942
499.56 685279
499.635 685279
499.71 685279
499.785 682618
499.86 679957
499.935 679957
500.01 679957
500.085 677300
500.16 674644
500.235 674644
500.31 674644
500.385 671990
500.46 669337
500.535 669337
500.61 669337
500.685 666686
500.76 664034
500.835 664034
500.91 664034
500.985 661388
501.06 658741
501.135 658741
501.21 658741
501.285 656096
501.36 653452
501.435 653452
501.51 653452
501.585 660606
501.66 667761
501.735 667761
501.81 667761
501.885 674905
501.96 682048
502.035 682048
502.11 682048
502.185 689185
502.26 696322
502.335 696322
502.41 696322
502.485 703451
502.56 710580
502.635 710580
502.71 710580
502.785 717699
502.86 724817
502.935 724817
503.01 724817
503.085 723150
503.16 721483
503.235 721483
503.31 721483
503.385 719819
503.46 718154
503.535 718154
503.61 718154
503.685 716493
503.76 714831
503.835 714831
503.91 714831
503.985 713169
504.06 711506
504.135 711506
504.21 711506
504.285 709849
504.36 708192
504.435 708192
504.51 708192
504.585 706535
504.66 704878
504.735 704878
504.81 704878
504.885 703225
504.96 701572
505.035 701572
505.11 701572
505.185 699919
505.26 698266
505.335 698266
505.41 698266
505.485 696286
505.56 694306
505.635 694306
505.71 694306
505.785 692328
505.86 690351
505.935 690351
506.01 690351
506.085 688376
506.16 686401
506.235 686401
506.31 686401
506.385 684429
506.46 682457
506.535 682457
506.61 682457
506.685 680486
506.76 678515
506.835 678515
506.91 678515
506.985 676546
507.06 674578
507.135 674578
507.21 674578
507.285 672613
507.36 670648
507.435 670648
507.51 670648
507.585 668685
507.66 666721
507.735 666721
507.81 666721
507.885 664760
507.96 662799
508.035 662799
508.11 662799
508.185 660841
508.26 658882
508.335 658882
508.41 658882
508.485 658068
508.56 657255
508.635 657255
508.71 657255
508.785 656441
508.86 655628
508.935 655628
509.01 655628
509.085 654816
509.16 654004
509.235 654004
509.31 654004
509.385 653192
509.46 652380
509.535 652380
509.61 652380
509.685 651571
509.76 650762
509.835 650762
509.91 650762
509.985 649953
510.06 649144
510.135 649144
510.21 649144
510.285 648335
510.36 647526
510.435 647526
510.51 647526
510.585 646718
510.66 645911
510.735 645911
510.81 645911
510.885 645103
510.96 644296
511.035 644296
511.11 644296
511.185 643491
511.26 642686
511.335 642686
511.41 642686
511.485 640781
511.56 638877
511.635 638877
511.71 638877
511.785 636975
511.86 635072
511.935 635072
512.01 635072
512.085 633172
512.16 631272
512.235 631272
512.31 631272
512.385 629374
512.46 627476
512.535 627476
512.61 627476
512.685 625580
512.76 623683
512.835 623683
512.91 623683
512.985 621790
513.06 619897
513.135 619897
513.21 619897
513.285 618004
513.36 616111
513.435 616111
513.51 616111
513.585 614222
513.66 612333
513.735 612333
513.81 612333
513.885 610447
513.96 608561
514.035 608561
514.11 608561
514.185 606676
514.26 604792
514.335 604792
514.41 604792
514.485 604267
514.56 603741
514.635 603741
514.71 603741
514.785 603217
514.86 602692
514.935 602692
515.01 602692
515.085 602169
515.16 601646
515.235 601646
515.31 601646
515.385 601123
515.46 600600
515.535 600600
515.61 600600
515.685 600077
515.76 599554
515.835 599554
515.91 599554
515.985 599032
516.06 598510
516.135 598510
516.21 598510
516.285 597989
516.36 597467
516.435 597467
516.51 597467
516.585 596948
516.66 596428
516.735 596428
516.81 596428
516.885 595908
516.96 595387
517.035 595387
517.11 595387
517.185 594868
517.26 594348
517.335 594348
517.41 594348
517.485 595604
517.56 596859
517.635 596859
517.71 596859
517.785 598110
517.86 599361
517.935 599361
518.01 599361
518.085 600612
518.16 601863
518.235 601863
518.31 601863
518.385 603111
518.46 604359
518.535 604359
518.61 604359
518.685 605607
518.76 606855
518.835 606855
518.91 606855
518.985 608100
519.06 609345
519.135 609345
519.21 609345
519.285 610590
519.36 611834
519.435 611834
519.51 611834
519.585 613079
519.66 614324
519.735 614324
519.81 614324
519.885 615565
519.96 616806
520.035 616806
520.11 616806
520.185 618047
520.26 619287
520.335 619287
520.41 619287
520.485 618534
520.56 617780
520.635 617780
520.71 617780
520.785 617026
520.86 616272
520.935 616272
521.01 616272
521.085 615521
521.16 614769
521.235 614769
521.31 614769
521.385 614018
521.46 613268
521.535 613268
521.61 613268
521.685 612518
521.76 611768
521.835 611768
521.91 611768
521.985 611018
522.06 610268
522.135 610268
522.21 610268
522.285 609520
522.36 608771
522.435 608771
522.51 608771
522.585 608023
522.66 607275
522.735 607275
522.81 607275
522.885 606529
522.96 605783
523.035 605783
523.11 605783
523.185 605037
523.26 604291
523.335 604291
523.41 604291
523.485 604527
523.56 604762
523.635 604762
523.71 604762
523.785 604999
523.86 605236
523.935 605236
524.01 605236
524.085 605472
524.16 605708
524.235 605708
524.31 605708
524.385 605943
524.46 606178
524.535 606178
524.61 606178
524.685 606414
524.76 606650
524.835 606650
524.91 606650
524.985 606884
525.06 607118
525.135 607118
525.21 607118
525.285 607354
525.36 607589
525.435 607589
525.51 607589
525.585 607825
525.66 608060
525.735 608060
525.81 608060
525.885 608294
525.96 608528
526.035 608528
526.11 608528
526.185 608762
526.26 608996
526.335 608996
526.41 608996
526.485 608561
526.56 608126
526.635 608126
526.71 608126
526.785 607690
526.86 607255
526.935 607255
527.01 607255
527.085 606821
527.16 606386
527.235 606386
527.31 606386
527.385 605953
527.46 605520
527.535 605520
527.61 605520
527.685 605086
527.76 604652
527.835 604652
527.91 604652
527.985 604218
528.06 603784
528.135 603784
528.21 603784
528.285 603353
528.36 602922
528.435 602922
528.51 602922
528.585 602489
528.66 602057
528.735 602057
528.81 602057
528.885 601625
528.96 601194
529.035 601194
529.11 601194
529.185 600764
529.26 600334
529.335 600334
529.41 600334
529.485 598269
529.56 596204
529.635 596204
529.71 596204
529.785 594141
529.86 592077
529.935 592077
530.01 592077
530.085 590017
530.16 587958
530.235 587958
530.31 587958
530.385 585899
530.46 583839
530.535 583839
530.61 583839
530.685 581785
530.76 579730
530.835 579730
530.91 579730
530.985 577677
531.06 575624
531.135 575624
531.21 575624
531.285 573571
531.36 571519
531.435 571519
531.51 571519
531.585 569471
531.66 567422
531.735 567422
531.81 567422
531.885 565376
531.96 563329
532.035 563329
532.11 563329
532.185 561284
532.26 559239
532.335 559239
532.41 559239
532.485 559888
532.56 560538
532.635 560538
532.71 560538
532.785 561186
532.86 561833
532.935 561833
533.01 561833
533.085 562482
533.16 563130
533.235 563130
533.31 563130
533.385 563776
533.46 564421
533.535 564421
533.61 564421
533.685 565067
533.76 565713
533.835 565713
533.91 565713
533.985 566358
534.06 567003
534.135 567003
534.21 567003
534.285 567648
534.36 568293
534.435 568293
534.51 568293
534.585 568936
534.66 569580
534.735 569580
534.81 569580
534.885 570222
534.96 570865
535.035 570865
535.11 570865
535.185 571507
535.26 572149
535.335 572149
535.41 572149
535.485 572800
535.56 573450
535.635 573450
535.71 573450
535.785 574099
535.86 574749
535.935 574749
536.01 574749
536.085 575398
536.16 576047
536.235 576047
536.31 576047
536.385 576695
536.46 577343
536.535 577343
536.61 577343
536.685 577991
536.76 578638
536.835 578638
536.91 578638
536.985 579284
537.06 579930
537.135 579930
537.21 579930
537.285 580577
537.36 581224
537.435 581224
537.51 581224
537.585 581868
537.66 582512
537.735 582512
537.81 582512
537.885 583158
537.96 583804
538.035 583804
538.11 583804
538.185 584448
538.26 585091
538.335 585091
538.41 585091
538.485 585314
538.56 585537
538.635 585537
538.71 585537
538.785 585763
538.86 585988
538.935 585988
539.01 585988
539.085 586211
539.16 586433
539.235 586433
539.31 586433
539.385 586658
539.46 586883
539.535 586883
539.61 586883
539.685 587105
539.76 587328
539.835 587328
539.91 587328
539.985 587552
540.06 587776
540.135 587776
540.21 587776
540.285 587998
540.36 588220
540.435 588220
540.51 588220
540.585 588442
540.66 588665
540.735 588665
540.81 588665
540.885 588887
540.96 589109
541.035 589109
541.11 589109
541.185 589332
541.26 589555
541.335 589555
541.41 589555
541.485 586213
541.56 582871
541.635 582871
541.71 582871
541.785 579534
541.86 576197
541.935 576197
542.01 576197
542.085 572864
542.16 569530
542.235 569530
542.31 569530
542.385 566198
542.46 562867
542.535 562867
542.61 562867
542.685 559541
542.76 556214
542.835 556214
542.91 556214
542.985 552893
543.06 549571
543.135 549571
543.21 549571
543.285 546252
543.36 542933
543.435 542933
543.51 542933
543.585 539616
543.66 536300
543.735 536300
543.81 536300
543.885 532989
543.96 529678
544.035 529678
544.11 529678
544.185 526369
544.26 523061
544.335 523061
544.41 523061
544.485 524172
544.56 525282
544.635 525282
544.71 525282
544.785 526393
544.86 527503
544.935 527503
545.01 527503
545.085 528611
545.16 529718
545.235 529718
545.31 529718
545.385 530826
545.46 531933
545.535 531933
545.61 531933
545.685 533040
545.76 534146
545.835 534146
545.91 534146
545.985 535251
546.06 536356
546.135 536356
546.21 536356
546.285 537460
546.36 538564
546.435 538564
546.51 538564
546.585 539667
546.66 540769
546.735 540769
546.81 540769
546.885 541871
546.96 542972
547.035 542972
547.11 542972
547.185 544072
547.26 545171
547.335 545171
547.41 545171
547.485 544324
547.56 543477
547.635 543477
547.71 543477
547.785 542630
547.86 541783
547.935 541783
548.01 541783
548.085 540936
548.16 540089
548.235 540089
548.31 540089
548.385 539244
548.46 538398
548.535 538398
548.61 538398
548.685 537553
548.76 536709
548.835 536709
548.91 536709
548.985 535864
549.06 535020
549.135 535020
549.21 535020
549.285 534178
549.36 533337
549.435 533337
549.51 533337
549.585 532495
549.66 531654
549.735 531654
549.81 531654
549.885 530812
549.96 529971
550.035 529971
550.11 529971
550.185 529131
550.26 528290
550.335 528290
550.41 528290
550.485 525738
550.56 523186
550.635 523186
550.71 523186
550.785 520636
550.86 518086
550.935 518086
551.01 518086
551.085 515538
551.16 512990
551.235 512990
551.31 512990
551.385 510445
551.46 507900
551.535 507900
551.61 507900
551.685 505358
551.76 502817
551.835 502817
551.91 502817
551.985 500278
552.06 497739
552.135 497739
552.21 497739
552.285 495203
552.36 492666
552.435 492666
552.51 492666
552.585 490133
552.66 487600
552.735 487600
552.81 487600
552.885 485069
552.96 482538
553.035 482538
553.11 482538
553.185 480009
553.26 477480
553.335 477480
553.41 477480
553.485 477934
553.56 478388
553.635 478388
553.71 478388
553.785 478841
553.86 479295
553.935 479295
554.01 479295
554.085 479749
554.16 480202
554.235 480202
554.31 480202
554.385 480655
554.46 481107
554.535 481107
554.61 481107
554.685 481559
554.76 482010
554.835 482010
554.91 482010
554.985 482462
555.06 482914
555.135 482914
555.21 482914
555.285 483365
555.36 483816
555.435 483816
555.51 483816
555.585 484266
555.66 484716
555.735 484716
555.81 484716
555.885 485167
555.96 485618
556.035 485618
556.11 485618
556.185 486067
556.26 486517
556.335 486517
556.41 486517
556.485 486848
556.56 487180
556.635 487180
556.71 487180
556.785 487513
556.86 487845
556.935 487845
557.01 487845
557.085 488178
557.16 488511
557.235 488511
557.31 488511
557.385 488844
557.46 489176
557.535 489176
557.61 489176
557.685 489507
557.76 489838
557.835 489838
557.91 489838
557.985 490169
558.06 490499
558.135 490499
558.21 490499
558.285 490830
558.36 491162
558.435 491162
558.51 491162
558.585 491492
558.66 491822
558.735 491822
558.81 491822
558.885 492152
558.96 492481
559.035 492481
559.11 492481
559.185 492811
559.26 493140
559.335 493140
559.41 493140
559.485 494106
559.56 495073
559.635 495073
559.71 495073
559.785 496036
559.86 497000
559.935 497000
560.01 497000
560.085 497963
560.16 498927
560.235 498927
560.31 498927
560.385 499889
560.46 500851
560.535 500851
560.61 500851
560.685 501811
560.76 502771
560.835 502771
560.91 502771
560.985 503731
561.06 504691
561.135 504691
561.21 504691
561.285 505651
561.36 506611
561.435 506611
561.51 506611
561.585 507567
561.66 508524
561.735 508524
561.81 508524
561.885 509482
561.96 510440
562.035 510440
562.11 510440
562.185 511395
562.26 512351
562.335 512351
562.41 512351
562.485 509429
562.56 506507
562.635 506507
562.71 506507
562.785 503590
562.86 500673
562.935 500673
563.01 500673
563.085 497757
563.16 494841
563.235 494841
563.31 494841
563.385 491929
563.46 489017
563.535 489017
563.61 489017
563.685 486108
563.76 483199
563.835 483199
563.91 483199
563.985 480294
564.06 477389
564.135 477389
564.21 477389
564.285 474486
564.36 471583
564.435 471583
564.51 471583
564.585 468683
564.66 465783
564.735 465783
564.81 465783
564.885 462887
564.96 459990
565.035 459990
565.11 459990
565.185 457097
565.26 454204
565.335 454204
565.41 454204
565.485 452435
565.56 450666
565.635 450666
565.71 450666
565.785 448900
565.86 447134
565.935 447134
566.01 447134
566.085 445369
566.16 443605
566.235 443605
566.31 443605
566.385 441842
566.46 440078
566.535 440078
566.61 440078
566.685 438317
566.76 436556
566.835 436556
566.91 436556
566.985 434797
567.06 433039
567.135 433039
567.21 433039
567.285 431281
567.36 429523
567.435 429523
567.51 429523
567.585 427768
567.66 426012
567.735 426012
567.81 426012
567.885 424258
567.96 422503
568.035 422503
568.11 422503
568.185 420751
568.26 419000
568.335 419000
568.41 419000
568.485 421030
568.56 423061
568.635 423061
568.71 423061
568.785 425089
568.86 427117
568.935 427117
569.01 427117
569.085 429142
569.16 431167
569.235 431167
569.31 431167
569.385 433191
569.46 435216
569.535 435216
569.61 435216
569.685 437237
569.76 439259
569.835 439259
569.91 439259
569.985 441277
570.06 443296
570.135 443296
570.21 443296
570.285 445312
570.36 447329
570.435 447329
570.51 447329
570.585 449345
570.66 451362
570.735 451362
570.81 451362
570.885 453374
570.96 455387
571.035 455387
571.11 455387
571.185 457398
571.26 459409
571.335 459409
571.41 459409
571.485 457873
571.56 456338
571.635 456338
571.71 456338
571.785 454807
571.86 453275
571.935 453275
572.01 453275
572.085 451744
572.16 450213
572.235 450213
572.31 450213
572.385 448682
572.46 447151
572.535 447151
572.61 447151
572.685 445625
572.76 444098
572.835 444098
572.91 444098
572.985 442570
573.06 441043
573.135 441043
573.21 441043
573.285 439519
573.36 437995
573.435 437995
573.51 437995
573.585 436472
573.66 434949
573.735 434949
573.81 434949
573.885 433427
573.96 431905
574.035 431905
574.11 431905
574.185 430385
574.26 428865
574.335 428865
574.41 428865
574.485 427657
574.56 426450
574.635 426450
574.71 426450
574.785 425243
574.86 424036
574.935 424036
575.01 424036
575.085 422830
575.16 421624
575.235 421624
575.31 421624
575.385 420420
575.46 419215
575.535 419215
575.61 419215
575.685 418012
575.76 416810
575.835 416810
575.91 416810
575.985 415608
576.06 414407
576.135 414407
576.21 414407
576.285 413206
576.36 412005
576.435 412005
576.51 412005
576.585 410807
576.66 409608
576.735 409608
576.81 409608
576.885 408410
576.96 407212
577.035 407212
577.11 407212
577.185 406016
577.26 404819
577.335 404819
577.41 404819
577.485 406286
577.56 407754
577.635 407754
577.71 407754
577.785 409221
577.86 410688
577.935 410688
578.01 410688
578.085 412153
578.16 413617
578.235 413617
578.31 413617
578.385 415081
578.46 416545
578.535 416545
578.61 416545
578.685 418007
578.76 419469
578.835 419469
578.91 419469
578.985 420930
579.06 422390
579.135 422390
579.21 422390
579.285 423850
579.36 425310
579.435 425310
579.51 425310
579.585 426767
579.66 428225
579.735 428225
579.81 428225
579.885 429680
579.96 431135
580.035 431135
580.11 431135
580.185 432590
580.26 434045
580.335 434045
580.41 434045
580.485 434623
580.56 435202
580.635 435202
580.71 435202
580.785 435780
580.86 436359
580.935 436359
581.01 436359
581.085 436936
581.16 437513
581.235 437513
581.31 437513
581.385 438090
581.46 438667
581.535 438667
581.61 438667
581.685 439243
581.76 439818
581.835 439818
581.91 439818
581.985 440395
582.06 440971
582.135 440971
582.21 440971
582.285 441546
582.36 442120
582.435 442120
582.51 442120
582.585 442695
582.66 443269
582.735 443269
582.81 443269
582.885 443843
582.96 444416
583.035 444416
583.11 444416
583.185 444990
583.26 445564
583.335 445564
583.41 445564
583.485 443083
583.56 440601
583.635 440601
583.71 440601
583.785 438122
583.86 435643
583.935 435643
584.01 435643
584.085 433165
584.16 430688
584.235 430688
584.31 430688
584.385 428215
584.46 425742
584.535 425742
584.61 425742
584.685 423270
584.76 420798
584.835 420798
584.91 420798
584.985 418329
585.06 415860
585.135 415860
585.21 415860
585.285 413393
585.36 410926
585.435 410926
585.51 410926
585.585 408463
585.66 406000
585.735 406000
585.81 406000
585.885 403538
585.96 401076
586.035 401076
586.11 401076
586.185 398617
586.26 396158
586.335 396158
586.41 396158
586.485 397686
586.56 399213
586.635 399213
586.71 399213
586.785 400738
586.86 402263
586.935 402263
587.01 402263
587.085 403788
587.16 405312
587.235 405312
587.31 405312
587.385 406835
587.46 408357
587.535 408357
587.61 408357
587.685 409878
587.76 411398
587.835 411398
587.91 411398
587.985 412919
588.06 414439
588.135 414439
588.21 414439
588.285 415956
588.36 417473
588.435 417473
588.51 417473
588.585 418990
588.66 420507
588.735 420507
588.81 420507
588.885 422021
588.96 423536
589.035 423536
589.11 423536
589.185 425050
589.26 426563
589.335 426563
589.41 426563
589.485 428075
589.56 429587
589.635 429587
589.71 429587
589.785 431097
589.86 432606
589.935 432606
590.01 432606
590.085 433688
590.16 434770
590.235 434770
590.31 434770
590.385 435850
590.46 436931
590.535 436931
590.61 436931
590.685 438011
590.76 439090
590.835 439090
590.91 439090
590.985 440168
591.06 441246
591.135 441246
591.21 441246
591.285 442322
591.36 443399
591.435 443399
591.51 443399
591.585 444476
591.66 445552
591.735 445552
591.81 445552
591.885 446627
591.96 447703
592.035 447703
592.11 447703
592.185 448776
592.26 449850
592.335 449850
592.41 449850
592.485 450922
592.56 451994
592.635 451994
592.71 451994
592.785 449853
592.86 447713
592.935 447713
593.01 447713
593.085 445572
593.16 443432
593.235 443432
593.31 443432
593.385 441295
593.46 439158
593.535 439158
593.61 439158
593.685 437023
593.76 434889
593.835 434889
593.91 434889
593.985 432756
594.06 430622
594.135 430622
594.21 430622
594.285 428490
594.36 426358
594.435 426358
594.51 426358
594.585 424230
594.66 422102
594.735 422102
594.81 422102
594.885 419975
594.96 417849
595.035 417849
595.11 417849
595.185 417519
595.26 417189
595.335 417189
595.41 417189
595.485 416858
595.56 416527
595.635 416527
595.71 416527
595.785 416197
595.86 415868
595.935 415868
596.01 415868
596.085 415538
596.16 415209
596.235 415209
596.31 415209
596.385 414880
596.46 414550
596.535 414550
596.61 414550
596.685 414222
596.76 413894
596.835 413894
596.91 413894
596.985 413565
597.06 413236
597.135 413236
597.21 413236
597.285 412908
597.36 412579
597.435 412579
597.51 412579
597.585 412252
597.66 411924
597.735 411924
597.81 411924
597.885 411596
597.96 411269
598.035 411269
598.11 411269
598.185 410942
598.26 410616
598.335 410616
598.41 410616
598.485 411367
598.56 412118
598.635 412118
598.71 412118
598.785 412868
598.86 413619
598.935 413619
599.01 413619
599.085 414370
599.16 415121
599.235 415121
599.31 415121
599.385 415870
599.46 416619
599.535 416619
599.61 416619
599.685 417367
599.76 418116
599.835 418116
599.91 418116
599.985 418864
600.06 419612
600.135 419612
600.21 419612
600.285 420359
600.36 421107
600.435 421107
600.51 421107
600.585 421852
600.66 422598
600.735 422598
600.81 422598
600.885 423344
600.96 424091
601.035 424091
601.11 424091
601.185 424836
601.26 425581
601.335 425581
601.41 425581
601.485 425347
601.56 425113
601.635 425113
601.71 425113
601.785 424879
601.86 424646
601.935 424646
602.01 424646
602.085 424412
602.16 424179
602.235 424179
602.31 424179
602.385 423947
602.46 423714
602.535 423714
602.61 423714
602.685 423481
602.76 423247
602.835 423247
602.91 423247
602.985 423015
603.06 422782
603.135 422782
603.21 422782
603.285 422550
603.36 422318
603.435 422318
603.51 422318
603.585 422086
603.66 421853
603.735 421853
603.81 421853
603.885 421622
603.96 421391
604.035 421391
604.11 421391
604.185 421158
604.26 420926
604.335 420926
604.41 420926
604.485 421506
604.56 422086
604.635 422086
604.71 422086
604.785 422665
604.86 423244
604.935 423244
605.01 423244
605.085 423823
605.16 424402
605.235 424402
605.31 424402
605.385 424981
605.46 425559
605.535 425559
605.61 425559
605.685 426136
605.76 426713
605.835 426713
605.91 426713
605.985 427290
606.06 427867
606.135 427867
606.21 427867
606.285 428444
606.36 429021
606.435 429021
606.51 429021
606.585 429596
606.66 430171
606.735 430171
606.81 430171
606.885 430747
606.96 431322
607.035 431322
607.11 431322
607.185 431897
607.26 432471
607.335 432471
607.41 432471
607.485 430419
607.56 428366
607.635 428366
607.71 428366
607.785 426315
607.86 424263
607.935 424263
608.01 424263
608.085 422213
608.16 420163
608.235 420163
608.31 420163
608.385 418116
608.46 416069
608.535 416069
608.61 416069
608.685 414024
608.76 411978
608.835 411978
608.91 411978
608.985 409935
609.06 407892
609.135 407892
609.21 407892
609.285 405851
609.36 403810
609.435 403810
609.51 403810
609.585 401770
609.66 399731
609.735 399731
609.81 399731
609.885 397693
609.96 395656
610.035 395656
610.11 395656
610.185 393621
610.26 391586
610.335 391586
610.41 391586
610.485 391965
610.56 392343
610.635 392343
610.71 392343
610.785 392722
610.86 393100
610.935 393100
611.01 393100
611.085 393478
611.16 393856
611.235 393856
611.31 393856
611.385 394234
611.46 394612
611.535 394612
611.61 394612
611.685 394989
611.76 395366
611.835 395366
611.91 395366
611.985 395744
612.06 396121
612.135 396121
612.21 396121
612.285 396497
612.36 396873
612.435 396873
612.51 396873
612.585 397248
612.66 397624
612.735 397624
612.81 397624
612.885 398000
612.96 398376
613.035 398376
613.11 398376
613.185 398752
613.26 399128
613.335 399128
613.41 399128
613.485 398158
613.56 397188
613.635 397188
613.71 397188
613.785 396219
613.86 395250
613.935 395250
614.01 395250
614.085 394282
614.16 393314
614.235 393314
614.31 393314
614.385 392347
614.46 391380
614.535 391380
614.61 391380
614.685 390414
614.76 389449
614.835 389449
614.91 389449
614.985 388484
615.06 387519
615.135 387519
615.21 387519
615.285 386555
615.36 385591
615.435 385591
615.51 385591
615.585 384627
615.66 383664
615.735 383664
615.81 383664
615.885 382702
615.96 381739
616.035 381739
616.11 381739
616.185 380778
616.26 379816
616.335 379816
616.41 379816
616.485 380084
616.56 380351
616.635 380351
616.71 380351
616.785 380617
616.86 380884
616.935 380884
617.01 380884
617.085 381150
617.16 381417
617.235 381417
617.31 381417
617.385 381682
617.46 381947
617.535 381947
617.61 381947
617.685 382214
617.76 382480
617.835 382480
617.91 382480
617.985 382746
618.06 383011
618.135 383011
618.21 383011
618.285 383276
618.36 383542
618.435 383542
618.51 383542
618.585 383806
618.66 384071
618.735 384071
618.81 384071
618.885 384337
618.96 384602
619.035 384602
619.11 384602
619.185 384866
619.26 385131
619.335 385131
619.41 385131
619.485 386712
619.56 388294
619.635 388294
619.71 388294
619.785 389875
619.86 391456
619.935 391456
620.01 391456
620.085 393035
620.16 394613
620.235 394613
620.31 394613
620.385 396191
620.46 397769
620.535 397769
620.61 397769
620.685 399344
620.76 400919
620.835 400919
620.91 400919
620.985 402494
621.06 404068
621.135 404068
621.21 404068
621.285 405641
621.36 407214
621.435 407214
621.51 407214
621.585 408786
621.66 410358
621.735 410358
621.81 410358
621.885 411928
621.96 413498
622.035 413498
622.11 413498
622.185 407836
622.26 402173
622.335 402173
622.41 402173
622.485 396517
622.56 390860
622.635 390860
622.71 390860
622.785 385209
622.86 379557
622.935 379557
623.01 379557
623.085 373911
623.16 368265
623.235 368265
623.31 368265
623.385 369668
623.46 371071
623.535 371071
623.61 371071
623.685 372473
623.76 373875
623.835 373875
623.91 373875
623.985 375276
624.06 376676
624.135 376676
624.21 376676
624.285 378076
624.36 379476
624.435 379476
624.51 379476
624.585 380873
624.66 382270
624.735 382270
624.81 382270
624.885 383666
624.96 385062
625.035 385062
625.11 385062
625.185 386458
625.26 387854
625.335 387854
625.41 387854
625.485 386635
625.56 385416
625.635 385416
625.71 385416
625.785 384199
625.86 382982
625.935 382982
626.01 382982
626.085 381767
626.16 380551
626.235 380551
626.31 380551
626.385 379336
626.46 378120
626.535 378120
626.61 378120
626.685 376907
626.76 375693
626.835 375693
626.91 375693
626.985 374480
627.06 373268
627.135 373268
627.21 373268
627.285 372056
627.36 370845
627.435 370845
627.51 370845
627.585 369635
627.66 368425
627.735 368425
627.81 368425
627.885 367216
627.96 366007
628.035 366007
628.11 366007
628.185 364799
628.26 363591
628.335 363591
628.41 363591
628.485 364321
628.56 365051
628.635 365051
628.71 365051
628.785 365781
628.86 366511
628.935 366511
629.01 366511
629.085 367239
629.16 367968
629.235 367968
629.31 367968
629.385 368696
629.46 369424
629.535 369424
629.61 369424
629.685 370151
629.76 370879
629.835 370879
629.91 370879
629.985 371606
630.06 372333
630.135 372333
630.21 372333
630.285 373058
630.36 373783
630.435 373783
630.51 373783
630.585 374509
630.66 375234
630.735 375234
630.81 375234
630.885 375959
630.96 376684
631.035 376684
631.11 376684
631.185 377408
631.26 378132
631.335 378132
631.41 378132
631.485 378181
631.56 378230
631.635 378230
631.71 378230
631.785 378279
631.86 378328
631.935 378328
632.01 378328
632.085 378377
632.16 378427
632.235 378427